time,seconds_elapsed,z,y,x
1761818162924365800,0.08136572265625,-0.8331298828125,-0.595458984375,0.097747802734375
1761818162934292700,0.091292724609375,-0.8427886962890625,-0.5952301025390625,0.085601806640625
1761818162944220000,0.101219970703125,-0.85003662109375,-0.5953826904296875,0.069091796875
1761818162954146800,0.111146728515625,-0.846527099609375,-0.5918731689453125,0.047576904296875
1761818162964073700,0.12107373046875,-0.8471832275390625,-0.594146728515625,0.04095458984375
1761818162974000600,0.131000732421875,-0.8355255126953125,-0.5994110107421875,0.0463714599609375
1761818162983928600,0.140928466796875,-0.811798095703125,-0.5992279052734375,0.0504302978515625
1761818162993855700,0.150855712890625,-0.7909088134765625,-0.60235595703125,0.056060791015625
1761818163003782700,0.16078271484375,-0.792694091796875,-0.6101531982421875,0.058380126953125
1761818163013709800,0.170709716796875,-0.8023529052734375,-0.615753173828125,0.0463409423828125
1761818163023636700,0.18063671875,-0.820343017578125,-0.615875244140625,0.03350830078125
1761818163033564000,0.19056396484375,-0.8386077880859375,-0.6119537353515625,0.02813720703125
1761818163043491800,0.200491943359375,-0.844512939453125,-0.604583740234375,0.019683837890625
1761818163053418800,0.210418701171875,-0.853759765625,-0.60577392578125,0.0113677978515625
1761818163063345700,0.220345703125,-0.8725128173828125,-0.6236572265625,0.01385498046875
1761818163073271800,0.230271728515625,-0.8791351318359375,-0.6331024169921875,0.014892578125
1761818163083198700,0.24019873046875,-0.8625335693359375,-0.6288909912109375,0.0135345458984375
1761818163093126000,0.2501259765625,-0.827880859375,-0.6020050048828125,0.0271148681640625
1761818163103053800,0.2600537109375,-0.8180999755859375,-0.6020050048828125,0.037445068359375
1761818163112980700,0.269980712890625,-0.781158447265625,-0.6338043212890625,0.03802490234375
1761818163122908000,0.279907958984375,-0.710418701171875,-0.6213226318359375,0.0368194580078125
1761818163132834800,0.289834716796875,-0.6915740966796875,-0.618743896484375,0.0102081298828125
1761818163142761700,0.29976171875,-0.6892242431640625,-0.6148834228515625,-0.0135955810546875
1761818163152688600,0.309688720703125,-0.7016754150390625,-0.6072235107421875,-0.0219268798828125
1761818163162616800,0.319616943359375,-0.7154541015625,-0.62249755859375,-0.032623291015625
1761818163172543700,0.329543701171875,-0.72735595703125,-0.648590087890625,-0.034912109375
1761818163182471000,0.339470947265625,-0.7446746826171875,-0.6816558837890625,-0.0416259765625
1761818163192397800,0.349397705078125,-0.7740020751953125,-0.702545166015625,-0.06756591796875
1761818163202325000,0.359324951171875,-0.829742431640625,-0.725311279296875,-0.1041259765625
1761818163212252000,0.369251953125,-0.8714447021484375,-0.761444091796875,-0.1169891357421875
1761818163222179800,0.379179931640625,-0.857818603515625,-0.7506256103515625,-0.1060333251953125
1761818163232106800,0.389106689453125,-0.8191986083984375,-0.7191314697265625,-0.0984039306640625
1761818163242033700,0.39903369140625,-0.76934814453125,-0.70672607421875,-0.0733184814453125
1761818163251960800,0.4089609375,-0.7338714599609375,-0.685516357421875,-0.041229248046875
1761818163261887700,0.4188876953125,-0.7092132568359375,-0.7468109130859375,-0.0020599365234375
1761818163271815000,0.42881494140625,-0.6832427978515625,-0.735443115234375,0.0136871337890625
1761818163281742800,0.438742919921875,-0.6819000244140625,-0.7422027587890625,-0.036041259765625
1761818163291669800,0.448669677734375,-0.67657470703125,-0.7402191162109375,-0.0606689453125
1761818163301597000,0.458596923828125,-0.6257781982421875,-0.666168212890625,-0.0670318603515625
1761818163311523800,0.46852392578125,-0.5958404541015625,-0.7330322265625,-0.0977783203125
1761818163321450800,0.47845068359375,-0.5524139404296875,-0.8089599609375,-0.0865936279296875
1761818163331377700,0.488377685546875,-0.498626708984375,-0.786407470703125,-0.086761474609375
1761818163341304800,0.498304931640625,-0.471038818359375,-0.754669189453125,-0.1006011962890625
1761818163351232800,0.508232666015625,-0.4695892333984375,-0.7359771728515625,-0.107666015625
1761818163361159700,0.51815966796875,-0.483978271484375,-0.7298583984375,-0.114044189453125
1761818163371086800,0.5280869140625,-0.479888916015625,-0.7258148193359375,-0.0914154052734375
1761818163381013800,0.538013671875,-0.4816741943359375,-0.735931396484375,-0.0552215576171875
1761818163390941000,0.54794091796875,-0.5005645751953125,-0.76641845703125,-0.0412750244140625
1761818163400867600,0.55786767578125,-0.5557098388671875,-0.795562744140625,-0.0518646240234375
1761818163410795800,0.567795654296875,-0.6432952880859375,-0.8077239990234375,-0.0714111328125
1761818163420722700,0.57772265625,-0.705902099609375,-0.8073272705078125,-0.09478759765625
1761818163430649900,0.58764990234375,-0.736053466796875,-0.7945404052734375,-0.1078643798828125
1761818163440576800,0.59757666015625,-0.6994476318359375,-0.8014678955078125,-0.12847900390625
1761818163450504000,0.60750390625,-0.494659423828125,-0.819915771484375,-0.1297149658203125
1761818163460430800,0.617430908203125,-0.39910888671875,-0.828765869140625,-0.156951904296875
1761818163470358800,0.62735888671875,-0.4976806640625,-0.821533203125,-0.127532958984375
1761818163480286000,0.637285888671875,-0.4670562744140625,-0.853851318359375,-0.08868408203125
1761818163490212900,0.647212890625,-0.487274169921875,-0.88134765625,-0.0907745361328125
1761818163500139800,0.657139892578125,-0.55914306640625,-0.8592529296875,-0.084228515625
1761818163510066700,0.667066650390625,-0.6198577880859375,-0.852630615234375,-0.121185302734375
1761818163519993900,0.676993896484375,-0.6308746337890625,-0.8366851806640625,-0.17926025390625
1761818163529921800,0.686921875,-0.6374053955078125,-0.8245697021484375,-0.21484375
1761818163539848700,0.6968486328125,-0.6469573974609375,-0.8348541259765625,-0.2337799072265625
1761818163549776000,0.70677587890625,-0.628814697265625,-0.8712615966796875,-0.1821136474609375
1761818163559702800,0.716702880859375,-0.5929718017578125,-0.8893890380859375,-0.1030120849609375
1761818163569630000,0.7266298828125,-0.5850372314453125,-0.8906707763671875,-0.0906219482421875
1761818163579556600,0.736556640625,-0.5926361083984375,-0.911895751953125,-0.0890045166015625
1761818163589484800,0.74648486328125,-0.5721435546875,-0.947052001953125,-0.0525360107421875
1761818163599411700,0.75641162109375,-0.501495361328125,-1.0001373291015625,-0.0136871337890625
1761818163609339000,0.7663388671875,-0.449462890625,-1.0306854248046875,-0.0384979248046875
1761818163619265800,0.776265869140625,-0.4263458251953125,-1.0717926025390625,-0.00860595703125
1761818163629192700,0.786192626953125,-0.516326904296875,-1.0764007568359375,0.0135955810546875
1761818163639120000,0.796119873046875,-0.6193389892578125,-1.048583984375,0.007904052734375
1761818163649047800,0.8060478515625,-0.6429290771484375,-1.0407257080078125,0.06195068359375
1761818163658975000,0.81597509765625,-0.595367431640625,-1.058837890625,0.152587890625
1761818163668901600,0.825901611328125,-0.556610107421875,-1.0983734130859375,0.25030517578125
1761818163678828800,0.835828857421875,-0.53228759765625,-1.1365509033203125,0.3081207275390625
1761818163688755700,0.845755615234375,-0.535064697265625,-1.1554412841796875,0.2971038818359375
1761818163698683000,0.855682861328125,-0.5646514892578125,-1.14813232421875,0.2560577392578125
1761818163708610800,0.86561083984375,-0.579742431640625,-1.1274871826171875,0.2261505126953125
1761818163718537700,0.875537841796875,-0.6932220458984375,-1.06182861328125,0.2118072509765625
1761818163728465000,0.88546484375,-0.8460693359375,-0.9388580322265625,0.1703033447265625
1761818163738391800,0.895391845703125,-0.8226470947265625,-0.8704681396484375,0.1343841552734375
1761818163748319000,0.905319091796875,-0.6909332275390625,-0.8929901123046875,0.1471405029296875
1761818163758245600,0.91524560546875,-0.5839080810546875,-0.9463653564453125,0.1613616943359375
1761818163768173600,0.925173583984375,-0.52410888671875,-0.9803619384765625,0.156463623046875
1761818163778100700,0.935100830078125,-0.50836181640625,-0.986785888671875,0.1385345458984375
1761818163788027600,0.945027587890625,-0.4985198974609375,-0.9842987060546875,0.13116455078125
1761818163797954800,0.954954833984375,-0.4893646240234375,-0.977813720703125,0.1490936279296875
1761818163807881700,0.9648818359375,-0.446380615234375,-0.968902587890625,0.1596221923828125
1761818163817809000,0.974808837890625,-0.3886260986328125,-0.9531707763671875,0.1330108642578125
1761818163827736800,0.98473681640625,-0.3592071533203125,-0.938873291015625,0.12109375
1761818163837664000,0.9946640625,-0.3247222900390625,-0.9162139892578125,0.0735626220703125
1761818163847590700,1.004590576171875,-0.2988128662109375,-0.914154052734375,-0.0040740966796875
1761818163857517800,1.014517822265625,-0.30816650390625,-0.9377593994140625,-0.0281219482421875
1761818163867444700,1.02444482421875,-0.3137969970703125,-0.961151123046875,-0.0134124755859375
1761818163877372700,1.03437255859375,-0.32464599609375,-0.975830078125,0.019012451171875
1761818163887299800,1.0442998046875,-0.3491668701171875,-0.9820098876953125,0.0694580078125
1761818163897226800,1.054226806640625,-0.3919219970703125,-0.9466705322265625,0.1022186279296875
1761818163907154000,1.06415380859375,-0.4084320068359375,-0.8846588134765625,0.0948944091796875
1761818163917080800,1.074080810546875,-0.3702545166015625,-0.866363525390625,0.061614990234375
1761818163927008000,1.084008056640625,-0.3478851318359375,-0.864501953125,-0.003753662109375
1761818163936936000,1.09393603515625,-0.350128173828125,-0.85089111328125,-0.0832672119140625
1761818163946862600,1.103862548828125,-0.356903076171875,-0.820892333984375,-0.151824951171875
1761818163956789800,1.113789794921875,-0.310546875,-0.8072052001953125,-0.1893463134765625
1761818163966716700,1.123716552734375,-0.250396728515625,-0.8061981201171875,-0.19268798828125
1761818163976643800,1.133643798828125,-0.2117156982421875,-0.8188629150390625,-0.200439453125
1761818163986570800,1.14357080078125,-0.163330078125,-0.839080810546875,-0.1996917724609375
1761818163996499000,1.1534990234375,-0.1236419677734375,-0.8425445556640625,-0.1861572265625
1761818164006425900,1.16342578125,-0.11248779296875,-0.81915283203125,-0.1887359619140625
1761818164016352800,1.173352783203125,-0.11773681640625,-0.787109375,-0.2355804443359375
1761818164026279700,1.18327978515625,-0.10137939453125,-0.7877349853515625,-0.3086090087890625
1761818164036206800,1.193206787109375,-0.0766754150390625,-0.7977447509765625,-0.327178955078125
1761818164046133800,1.2031337890625,-0.04638671875,-0.7945556640625,-0.2817230224609375
1761818164056061700,1.213061767578125,-0.02703857421875,-0.794952392578125,-0.2290496826171875
1761818164065988900,1.22298876953125,-0.0431671142578125,-0.793182373046875,-0.21337890625
1761818164075916500,1.23291650390625,-0.0902557373046875,-0.7976226806640625,-0.225830078125
1761818164085843200,1.24284326171875,-0.120574951171875,-0.8155059814453125,-0.2494659423828125
1761818164095770400,1.252770263671875,-0.110382080078125,-0.8284912109375,-0.27264404296875
1761818164105698300,1.2626982421875,-0.0870208740234375,-0.82666015625,-0.289886474609375
1761818164115625500,1.27262548828125,-0.0565948486328125,-0.8196868896484375,-0.2828826904296875
1761818164125552400,1.282552490234375,-0.0254974365234375,-0.813812255859375,-0.2486572265625
1761818164135479600,1.2924794921875,0.0007476806640625,-0.8106842041015625,-0.2226715087890625
1761818164145406500,1.302406494140625,-0.0002288818359375,-0.82550048828125,-0.2101287841796875
1761818164155333600,1.312333740234375,-0.0381927490234375,-0.8545379638671875,-0.20074462890625
1761818164165261600,1.322261474609375,-0.089874267578125,-0.8760223388671875,-0.2242584228515625
1761818164175188500,1.3321884765625,-0.1506805419921875,-0.8874359130859375,-0.2775115966796875
1761818164185115400,1.342115478515625,-0.15850830078125,-0.9084625244140625,-0.3125152587890625
1761818164195042300,1.352042236328125,-0.1321868896484375,-0.9270477294921875,-0.317352294921875
1761818164204969500,1.361969482421875,-0.0993804931640625,-0.9329986572265625,-0.3374481201171875
1761818164214896400,1.371896484375,-0.0601348876953125,-0.940704345703125,-0.339996337890625
1761818164224824300,1.38182421875,-0.0659332275390625,-0.94720458984375,-0.3148651123046875
1761818164234751500,1.39175146484375,-0.0609893798828125,-0.958160400390625,-0.293792724609375
1761818164244678400,1.401678466796875,-0.0733642578125,-0.9777069091796875,-0.2795562744140625
1761818164254605600,1.41160546875,-0.0923614501953125,-0.9961090087890625,-0.2834930419921875
1761818164264532200,1.4215322265625,-0.115020751953125,-1.01251220703125,-0.3030548095703125
1761818164274460400,1.43146044921875,-0.1527252197265625,-1.0087890625,-0.325653076171875
1761818164284387300,1.44138720703125,-0.1412506103515625,-0.99444580078125,-0.3592529296875
1761818164294314500,1.451314453125,-0.098876953125,-0.988372802734375,-0.3967437744140625
1761818164304241400,1.461241455078125,-0.088836669921875,-0.967132568359375,-0.4337615966796875
1761818164314168600,1.47116845703125,-0.074981689453125,-0.948211669921875,-0.462371826171875
1761818164324095500,1.481095458984375,-0.044769287109375,-0.9554595947265625,-0.4716644287109375
1761818164334023400,1.4910234375,-0.047088623046875,-0.9644317626953125,-0.4712677001953125
1761818164343950600,1.50095068359375,-0.051849365234375,-0.98248291015625,-0.456695556640625
1761818164353877200,1.510877197265625,-0.0253143310546875,-1.00750732421875,-0.40753173828125
1761818164363804400,1.520804443359375,-0.014404296875,-1.0128021240234375,-0.3509368896484375
1761818164373731300,1.5307314453125,-0.022247314453125,-1.00128173828125,-0.2965545654296875
1761818164383658500,1.540658447265625,-0.0292816162109375,-0.983489990234375,-0.27557373046875
1761818164393586400,1.55058642578125,-0.04559326171875,-0.9505615234375,-0.2902069091796875
1761818164403513300,1.560513427734375,-0.0816192626953125,-0.904754638671875,-0.3132781982421875
1761818164413440500,1.5704404296875,-0.0931396484375,-0.8672027587890625,-0.324737548828125
1761818164423367400,1.580367431640625,-0.0805816650390625,-0.8594970703125,-0.339202880859375
1761818164433294600,1.590294677734375,-0.047027587890625,-0.866424560546875,-0.3746490478515625
1761818164443222500,1.600222412109375,-0.02557373046875,-0.868011474609375,-0.3809356689453125
1761818164453149400,1.6101494140625,0.0038604736328125,-0.8486175537109375,-0.336273193359375
1761818164463076400,1.620076416015625,0.088775634765625,-0.8419952392578125,-0.2996063232421875
1761818164473003300,1.630003173828125,0.1507720947265625,-0.8393096923828125,-0.261444091796875
1761818164482930400,1.639930419921875,0.1639404296875,-0.8245697021484375,-0.200531005859375
1761818164492857300,1.649857421875,0.159942626953125,-0.7975006103515625,-0.1121368408203125
1761818164502785500,1.65978564453125,0.2001190185546875,-0.7960205078125,-0.0489349365234375
1761818164512712400,1.66971240234375,0.260223388671875,-0.82135009765625,-0.0193328857421875
1761818164522639600,1.6796396484375,0.3033447265625,-0.8307952880859375,-0.01495361328125
1761818164532566300,1.689566162109375,0.3321380615234375,-0.803009033203125,-0.050018310546875
1761818164542493400,1.699493408203125,0.3771820068359375,-0.7667999267578125,-0.1103515625
1761818164552420400,1.70942041015625,0.39605712890625,-0.7431182861328125,-0.1409759521484375
1761818164562348300,1.719348388671875,0.3898773193359375,-0.7212677001953125,-0.144073486328125
1761818164572275500,1.729275390625,0.3919219970703125,-0.675811767578125,-0.15386962890625
1761818164582202400,1.739202392578125,-0.00347900390625,-0.793426513671875,-0.1555328369140625
1761818164592129500,1.749129638671875,-0.4158172607421875,-1.412200927734375,-0.0179595947265625
1761818164602056400,1.759056396484375,-1.15911865234375,-1.613250732421875,-0.0109405517578125
1761818164611984400,1.768984375,-2.256439208984375,-1.585113525390625,-0.4940948486328125
1761818164621911600,1.77891162109375,-1.291961669921875,-1.33709716796875,-0.6782073974609375
1761818164631838200,1.788838134765625,-0.26849365234375,-1.2415313720703125,-0.697967529296875
1761818164641765400,1.798765380859375,-0.435760498046875,-1.050445556640625,-0.932586669921875
1761818164651692300,1.8086923828125,-0.4333648681640625,-0.9024505615234375,-0.7242279052734375
1761818164661619500,1.818619384765625,-0.1450347900390625,-0.8499755859375,-0.382720947265625
1761818164671547400,1.82854736328125,0.0702362060546875,-0.950531005859375,-0.1583404541015625
1761818164681474600,1.838474609375,0.06536865234375,-1.0321502685546875,-0.0445098876953125
1761818164691401500,1.8484013671875,-0.0399932861328125,-0.970672607421875,-0.0667724609375
1761818164701328600,1.85832861328125,-0.0930938720703125,-0.946044921875,-0.1308441162109375
1761818164711255300,1.86825537109375,-0.0917816162109375,-0.990081787109375,-0.23724365234375
1761818164721182500,1.878182373046875,-0.119781494140625,-1.0024261474609375,-0.2509613037109375
1761818164731110400,1.8881103515625,-0.1203155517578125,-0.9518890380859375,-0.1949005126953125
1761818164741037300,1.898037353515625,-0.1921844482421875,-0.919281005859375,-0.1370086669921875
1761818164750964500,1.907964599609375,-0.2152252197265625,-0.9497222900390625,-0.112579345703125
1761818164760891400,1.917891357421875,-0.2104034423828125,-0.970794677734375,-0.1215972900390625
1761818164770818600,1.927818603515625,-0.07293701171875,-1.018096923828125,-0.12115478515625
1761818164780746500,1.93774658203125,-0.0594482421875,-1.0019378662109375,-0.09423828125
1761818164790673400,1.94767333984375,-0.1058349609375,-0.9776763916015625,-0.092376708984375
1761818164800600600,1.9576005859375,-0.1090087890625,-0.9970703125,-0.147186279296875
1761818164810527200,1.96752734375,-0.12109375,-0.9958343505859375,-0.20526123046875
1761818164820454400,1.977454345703125,-0.147369384765625,-0.9803924560546875,-0.2092742919921875
1761818164830381300,1.98738134765625,-0.1536407470703125,-0.969329833984375,-0.188446044921875
1761818164840309500,1.9973095703125,-0.1078643798828125,-0.9535675048828125,-0.180572509765625
1761818164850236400,2.007236328125,-0.1064605712890625,-0.948638916015625,-0.1654052734375
1761818164860163300,2.017163330078125,-0.1596832275390625,-0.9784698486328125,-0.18170166015625
1761818164870090500,2.027090576171875,-0.0964508056640625,-1.0100860595703125,-0.222412109375
1761818164880017400,2.037017333984375,-0.0742645263671875,-0.9908905029296875,-0.22015380859375
1761818164889944300,2.0469443359375,-0.122833251953125,-0.965179443359375,-0.185028076171875
1761818164899872500,2.05687255859375,-0.1875457763671875,-0.9715576171875,-0.1563262939453125
1761818164909799400,2.06679931640625,-0.161712646484375,-0.9900970458984375,-0.1478271484375
1761818164919726300,2.076726318359375,-0.135711669921875,-0.9759674072265625,-0.14794921875
1761818164929653500,2.086653564453125,-0.1231689453125,-0.9693145751953125,-0.143310546875
1761818164939580400,2.096580322265625,-0.12255859375,-0.986480712890625,-0.146728515625
1761818164949507600,2.106507568359375,-0.1217041015625,-0.9898681640625,-0.1585845947265625
1761818164959435500,2.116435546875,-0.126251220703125,-0.979400634765625,-0.1710205078125
1761818164969362400,2.126362548828125,-0.141998291015625,-0.9688262939453125,-0.18609619140625
1761818164979289600,2.13628955078125,-0.146881103515625,-0.9712066650390625,-0.1940460205078125
1761818164989216300,2.14621630859375,-0.11871337890625,-0.976226806640625,-0.1985626220703125
1761818164999143400,2.156143310546875,-0.1295318603515625,-0.9734954833984375,-0.191436767578125
1761818165009071400,2.1660712890625,-0.136474609375,-0.9736328125,-0.1563262939453125
1761818165018998300,2.175998291015625,-0.1357879638671875,-0.99530029296875,-0.1290283203125
1761818165028925400,2.185925537109375,-0.13641357421875,-0.996978759765625,-0.15283203125
1761818165038852400,2.195852294921875,-0.126617431640625,-0.9853057861328125,-0.17401123046875
1761818165048779500,2.205779541015625,-0.12957763671875,-0.97735595703125,-0.173736572265625
1761818165058706400,2.21570654296875,-0.1152801513671875,-0.984710693359375,-0.1690826416015625
1761818165068634600,2.225634521484375,-0.1114044189453125,-0.987701416015625,-0.1583251953125
1761818165078561500,2.2355615234375,-0.108917236328125,-0.973175048828125,-0.1546783447265625
1761818165088488700,2.24548876953125,-0.138397216796875,-0.9606781005859375,-0.15277099609375
1761818165098415600,2.25541552734375,-0.12994384765625,-0.9737396240234375,-0.1664276123046875
1761818165108342500,2.265342529296875,-0.1235809326171875,-0.98333740234375,-0.18377685546875
1761818165118269400,2.27526953125,-0.1307830810546875,-0.983673095703125,-0.1788177490234375
1761818165128197400,2.285197265625,-0.132598876953125,-0.9820556640625,-0.1783294677734375
1761818165138124500,2.29512451171875,-0.117889404296875,-0.99285888671875,-0.1902923583984375
1761818165148051500,2.305051513671875,-0.1308135986328125,-1.001434326171875,-0.192108154296875
1761818165157978600,2.314978515625,-0.1362152099609375,-0.9716949462890625,-0.174713134765625
1761818165167905500,2.324905517578125,-0.1220550537109375,-0.9741363525390625,-0.1500091552734375
1761818165177832700,2.334832763671875,-0.1298980712890625,-0.9915924072265625,-0.152099609375
1761818165187760600,2.3447607421875,-0.1282196044921875,-0.9783782958984375,-0.1583099365234375
1761818165197687600,2.3546875,-0.123748779296875,-0.9730987548828125,-0.157012939453125
1761818165207614500,2.364614501953125,-0.128326416015625,-0.974456787109375,-0.16448974609375
1761818165217541400,2.374541259765625,-0.135284423828125,-0.9817352294921875,-0.1760711669921875
1761818165227468500,2.384468505859375,-0.135345458984375,-0.97711181640625,-0.1701812744140625
1761818165237395500,2.3943955078125,-0.1258544921875,-0.97137451171875,-0.167816162109375
1761818165247323400,2.404323486328125,-0.1258392333984375,-0.9814910888671875,-0.170654296875
1761818165257250600,2.41425048828125,-0.1243896484375,-0.9897613525390625,-0.180084228515625
1761818165267177500,2.424177490234375,-0.1241455078125,-0.985137939453125,-0.17828369140625
1761818165277104600,2.434104736328125,-0.1295013427734375,-0.9815521240234375,-0.168548583984375
1761818165287031300,2.44403125,-0.13006591796875,-0.9802398681640625,-0.1661376953125
1761818165296958500,2.45395849609375,-0.1300048828125,-0.9774017333984375,-0.1727142333984375
1761818165306886400,2.463886474609375,-0.136688232421875,-0.9775848388671875,-0.17608642578125
1761818165316813600,2.4738134765625,-0.1429443359375,-0.98260498046875,-0.1728057861328125
1761818165326740500,2.483740478515625,-0.13800048828125,-0.98388671875,-0.169677734375
1761818165336667600,2.493667724609375,-0.1313018798828125,-0.97955322265625,-0.1651611328125
1761818165346594600,2.503594482421875,-0.12640380859375,-0.978973388671875,-0.1637115478515625
1761818165356521700,2.513521728515625,-0.126678466796875,-0.9780120849609375,-0.1673583984375
1761818165366449700,2.52344970703125,-0.132049560546875,-0.9781036376953125,-0.17315673828125
1761818165376376300,2.533376220703125,-0.160003662109375,-0.972198486328125,-0.1747283935546875
1761818165386303500,2.543303466796875,-0.2233123779296875,-0.969635009765625,-0.1827850341796875
1761818165396230400,2.55323046875,-0.2325286865234375,-1.0020904541015625,-0.2099151611328125
1761818165406157600,2.563157470703125,-0.193878173828125,-1.0302886962890625,-0.2327423095703125
1761818165416085500,2.57308544921875,-0.189178466796875,-1.0345611572265625,-0.233978271484375
1761818165426012400,2.583012451171875,-0.178192138671875,-1.058990478515625,-0.224822998046875
1761818165435939600,2.592939697265625,-0.1380157470703125,-1.0877227783203125,-0.231414794921875
1761818165445866500,2.602866455078125,-0.13616943359375,-1.1351776123046875,-0.2767486572265625
1761818165455793700,2.612793701171875,-0.2254791259765625,-1.2819976806640625,-0.3233184814453125
1761818165465720300,2.62272021484375,-0.4293212890625,-1.499908447265625,-0.3133087158203125
1761818165475647500,2.6326474609375,-0.5869903564453125,-1.6848297119140625,-0.26971435546875
1761818165485575400,2.642575439453125,-0.5555419921875,-1.76953125,-0.0664215087890625
1761818165495502600,2.652502685546875,-0.4608001708984375,-1.846588134765625,0.167938232421875
1761818165505429500,2.662429443359375,-0.3430938720703125,-1.8465728759765625,0.3009185791015625
1761818165515356400,2.6723564453125,-0.3857421875,-1.770843505859375,0.2781219482421875
1761818165525283600,2.68228369140625,-0.4219818115234375,-1.7616424560546875,0.247222900390625
1761818165535211500,2.69221142578125,-0.442718505859375,-1.698944091796875,0.1856842041015625
1761818165545138700,2.702138671875,-0.4164276123046875,-1.5743865966796875,0.1347198486328125
1761818165555065300,2.7120654296875,-0.2612152099609375,-1.4447021484375,0.0866241455078125
1761818165564992500,2.721992431640625,-0.077117919921875,-1.274078369140625,-0.05474853515625
1761818165574919400,2.73191943359375,0.1444244384765625,-1.0397796630859375,-0.1753997802734375
1761818165584846600,2.7418466796875,0.4087982177734375,-0.7855072021484375,-0.29901123046875
1761818165594774500,2.7517744140625,0.6070709228515625,-0.65380859375,-0.4100494384765625
1761818165604701400,2.761701416015625,0.5898895263671875,-0.6654815673828125,-0.332855224609375
1761818165614628600,2.771628662109375,0.3965606689453125,-0.7140960693359375,-0.2657012939453125
1761818165624555500,2.781555419921875,0.1488037109375,-0.75592041015625,-0.2031402587890625
1761818165634482700,2.791482666015625,0.0035400390625,-0.7950897216796875,-0.0908966064453125
1761818165644409300,2.801409423828125,-0.0803680419921875,-0.814422607421875,0.0137176513671875
1761818165654336500,2.81133642578125,-0.175872802734375,-0.8160247802734375,0.0878143310546875
1761818165664264400,2.821264404296875,-0.2224578857421875,-0.8058013916015625,0.1320343017578125
1761818165674191400,2.83119140625,-0.2116546630859375,-0.7800750732421875,0.1470184326171875
1761818165684118500,2.841118408203125,-0.14691162109375,-0.755279541015625,0.1267242431640625
1761818165694045400,2.85104541015625,-0.099945068359375,-0.7299957275390625,0.1063232421875
1761818165703972600,2.86097265625,-0.0775299072265625,-0.691131591796875,0.069488525390625
1761818165713899500,2.8708994140625,-0.0313262939453125,-0.65234375,-0.0115966796875
1761818165723827700,2.88082763671875,0.0056610107421875,-0.6077117919921875,-0.0694122314453125
1761818165733754400,2.89075439453125,0.0637969970703125,-0.5648345947265625,-0.1231842041015625
1761818165743681500,2.900681640625,0.1540985107421875,-0.5335235595703125,-0.187835693359375
1761818165753608400,2.9106083984375,0.252349853515625,-0.516326904296875,-0.248504638671875
1761818165763535600,2.92053564453125,0.32073974609375,-0.5095367431640625,-0.2800750732421875
1761818165773462500,2.930462646484375,0.350189208984375,-0.516815185546875,-0.277923583984375
1761818165783390500,2.940390380859375,0.35211181640625,-0.5225372314453125,-0.245880126953125
1761818165793317600,2.950317626953125,0.3360137939453125,-0.5360565185546875,-0.1984710693359375
1761818165803244500,2.96024462890625,0.3166351318359375,-0.5655517578125,-0.1805267333984375
1761818165813171700,2.970171630859375,0.319427490234375,-0.628082275390625,-0.1921844482421875
1761818165823098400,2.980098388671875,0.33343505859375,-0.6731719970703125,-0.21539306640625
1761818165833025500,2.990025634765625,0.3243408203125,-0.68389892578125,-0.245819091796875
1761818165842953500,2.999953369140625,0.3409881591796875,-0.686248779296875,-0.2645721435546875
1761818165852880400,3.00988037109375,0.4481353759765625,-0.6927337646484375,-0.2591552734375
1761818165862807600,3.0198076171875,0.5731048583984375,-0.6796417236328125,-0.246856689453125
1761818165872734500,3.029734375,0.725067138671875,-0.6284332275390625,-0.2825775146484375
1761818165882661600,3.03966162109375,0.902862548828125,-0.5641326904296875,-0.3586273193359375
1761818165892588500,3.049588623046875,1.06707763671875,-0.4771881103515625,-0.440704345703125
1761818165902516500,3.0595166015625,1.1920013427734375,-0.3992919921875,-0.515350341796875
1761818165912443400,3.069443359375,1.3214569091796875,-0.35162353515625,-0.5125274658203125
1761818165922370600,3.07937060546875,1.3964996337890625,-0.3004150390625,-0.4987335205078125
1761818165932297500,3.08929736328125,1.348388671875,-0.2433624267578125,-0.499298095703125
1761818165942224400,3.099224365234375,1.334930419921875,-0.2033843994140625,-0.534027099609375
1761818165952151600,3.109151611328125,1.173370361328125,-0.1375885009765625,-0.5672607421875
1761818165962079500,3.11907958984375,0.7767181396484375,-0.2926025390625,-0.446319580078125
1761818165972006700,3.129006591796875,-0.6763763427734375,-1.4677581787109375,0.23968505859375
1761818165981933600,3.13893359375,-2.3762054443359375,-2.527740478515625,1.19842529296875
1761818165991860500,3.148860595703125,-4.3818511962890625,-2.3874359130859375,2.0966033935546875
1761818166001787400,3.158787353515625,-4.22027587890625,-2.09405517578125,1.72039794921875
1761818166011714600,3.168714599609375,-2.6817169189453125,-1.3158416748046875,0.3533782958984375
1761818166021641500,3.178641357421875,-1.45025634765625,-0.60125732421875,-0.709197998046875
1761818166031569400,3.1885693359375,-0.8990478515625,-0.4714813232421875,-0.8605499267578125
1761818166041496600,3.19849658203125,-0.3971405029296875,-0.694793701171875,-0.5792236328125
1761818166051423500,3.208423583984375,-0.065032958984375,-0.8160247802734375,-0.3630523681640625
1761818166061350700,3.2183505859375,0.07965087890625,-0.80712890625,-0.146759033203125
1761818166071277600,3.228277587890625,0.1740875244140625,-0.7344818115234375,0.065948486328125
1761818166081205000,3.238205078125,0.18115234375,-0.759521484375,0.343994140625
1761818166091133000,3.2481328125,-0.0861053466796875,-0.904876708984375,0.353912353515625
1761818166101059800,3.258059814453125,-0.317413330078125,-1.0032958984375,0.1389312744140625
1761818166110987000,3.267987060546875,-0.35345458984375,-0.961669921875,-0.0818939208984375
1761818166120914000,3.277913818359375,-0.40972900390625,-0.9002227783203125,-0.2060089111328125
1761818166130840800,3.2878408203125,-0.3899993896484375,-0.907257080078125,-0.314666748046875
1761818166140767700,3.297767822265625,-0.4037322998046875,-0.987640380859375,-0.29278564453125
1761818166150695700,3.30769580078125,-0.370330810546875,-1.0081787109375,-0.1360015869140625
1761818166160622800,3.317622802734375,-0.3083038330078125,-0.9613494873046875,-0.037994384765625
1761818166170549800,3.3275498046875,-0.2708587646484375,-0.9601898193359375,0.0225830078125
1761818166180477000,3.337476806640625,-0.2475128173828125,-0.9645843505859375,0.08111572265625
1761818166190403800,3.34740380859375,-0.24871826171875,-0.9678955078125,0.137786865234375
1761818166200331000,3.3573310546875,-0.2159881591796875,-0.97772216796875,0.1492462158203125
1761818166210257700,3.367257568359375,-0.2362213134765625,-0.964447021484375,0.127105712890625
1761818166220186000,3.37718603515625,-0.248321533203125,-0.9786529541015625,0.041229248046875
1761818166230112800,3.38711279296875,-0.263153076171875,-0.967498779296875,-0.055694580078125
1761818166240040000,3.3970400390625,-0.3250732421875,-0.964111328125,-0.10980224609375
1761818166249966800,3.406966796875,-0.344268798828125,-0.984130859375,-0.129241943359375
1761818166259894000,3.41689404296875,-0.321044921875,-0.9493560791015625,-0.0977935791015625
1761818166269821000,3.426821044921875,-0.2987823486328125,-0.926483154296875,-0.060302734375
1761818166279748900,3.436748779296875,-0.3021087646484375,-0.9579925537109375,-0.01470947265625
1761818166289676000,3.446676025390625,-0.2868194580078125,-0.96905517578125,0.012420654296875
1761818166299603000,3.45660302734375,-0.2984771728515625,-0.9588470458984375,0.038055419921875
1761818166309529900,3.46652978515625,-0.304840087890625,-0.9471282958984375,0.026824951171875
1761818166319456800,3.476456787109375,-0.3141937255859375,-0.9586639404296875,-0.0075531005859375
1761818166329384000,3.486384033203125,-0.30145263671875,-0.9687652587890625,-0.019775390625
1761818166339311900,3.496311767578125,-0.2961578369140625,-0.9483795166015625,-0.029510498046875
1761818166349238800,3.50623876953125,-0.3092193603515625,-0.9462432861328125,-0.03094482421875
1761818166359166000,3.516166015625,-0.30255126953125,-0.9492034912109375,-0.034515380859375
1761818166369092900,3.5260927734375,-0.318511962890625,-0.9358673095703125,-0.039154052734375
1761818166379020000,3.53602001953125,-0.3213043212890625,-0.9486541748046875,-0.0399169921875
1761818166388946700,3.54594677734375,-0.3091278076171875,-0.95831298828125,-0.0308685302734375
1761818166398873900,3.555873779296875,-0.3017578125,-0.956878662109375,-0.019500732421875
1761818166408801800,3.5658017578125,-0.290435791015625,-0.95941162109375,-0.0130157470703125
1761818166418728700,3.575728759765625,-0.2836456298828125,-0.95562744140625,-0.0157623291015625
1761818166428655900,3.58565576171875,-0.301788330078125,-0.95355224609375,-0.0201568603515625
1761818166438582800,3.595582763671875,-0.3174896240234375,-0.9528045654296875,-0.0264892578125
1761818166448510000,3.605510009765625,-0.31689453125,-0.9556427001953125,-0.0331268310546875
1761818166458436900,3.615436767578125,-0.306243896484375,-0.9580535888671875,-0.02978515625
1761818166468364000,3.625364013671875,-0.3006591796875,-0.9595184326171875,-0.020904541015625
1761818166478292000,3.6352919921875,-0.3030242919921875,-0.9568328857421875,-0.0096435546875
1761818166488219000,3.645218994140625,-0.303436279296875,-0.9584503173828125,-0.0113677978515625
1761818166498145800,3.655145751953125,-0.296417236328125,-0.95770263671875,-0.0242462158203125
1761818166508073000,3.665072998046875,-0.3068084716796875,-0.9466400146484375,-0.024078369140625
1761818166517999900,3.674999755859375,-0.3095703125,-0.9526519775390625,-0.0198974609375
1761818166527927000,3.684927001953125,-0.30517578125,-0.9570770263671875,-0.0213470458984375
1761818166537855000,3.69485498046875,-0.2969818115234375,-0.9547271728515625,-0.028076171875
1761818166547782000,3.704781982421875,-0.2950439453125,-0.95855712890625,-0.0255584716796875
1761818166557709000,3.714708984375,-0.30419921875,-0.9610443115234375,-0.0195159912109375
1761818166567635700,3.7246357421875,-0.3022918701171875,-0.961578369140625,-0.0215301513671875
1761818166577563000,3.73456298828125,-0.2975921630859375,-0.9610595703125,-0.0310211181640625
1761818166587489800,3.74448974609375,-0.2991180419921875,-0.959869384765625,-0.033538818359375
1761818166597417000,3.7544169921875,-0.3036651611328125,-0.956451416015625,-0.01947021484375
1761818166607345000,3.764344970703125,-0.3049163818359375,-0.9546051025390625,-0.0074462890625
1761818166617271800,3.774271728515625,-0.302825927734375,-0.9530487060546875,-0.014739990234375
1761818166627199000,3.784198974609375,-0.3063507080078125,-0.950347900390625,-0.0273590087890625
1761818166637126000,3.7941259765625,-0.3061981201171875,-0.95196533203125,-0.03314208984375
1761818166647052800,3.804052734375,-0.2956390380859375,-0.9618682861328125,-0.0328521728515625
1761818166656979700,3.813979736328125,-0.300933837890625,-0.956634521484375,-0.0281219482421875
1761818166666908000,3.823907958984375,-0.3118438720703125,-0.948394775390625,-0.0290985107421875
1761818166676834800,3.833834716796875,-0.3097686767578125,-0.9523468017578125,-0.0305023193359375
1761818166686762000,3.843761962890625,-0.3086700439453125,-0.951416015625,-0.0357666015625
1761818166696689000,3.85368896484375,-0.31292724609375,-0.9520111083984375,-0.02813720703125
1761818166706615800,3.86361572265625,-0.3094482421875,-0.94970703125,-0.0250396728515625
1761818166716543000,3.87354296875,-0.310516357421875,-0.9531402587890625,-0.0235595703125
1761818166726470000,3.883469970703125,-0.3128662109375,-0.955078125,-0.017822265625
1761818166736398000,3.893398193359375,-0.3067779541015625,-0.950775146484375,-0.0165557861328125
1761818166746324700,3.90332470703125,-0.30242919921875,-0.9597320556640625,-0.0193939208984375
1761818166756252000,3.913251953125,-0.2986297607421875,-0.96453857421875,-0.0247802734375
1761818166766178800,3.9231787109375,-0.29547119140625,-0.955780029296875,-0.027679443359375
1761818166776106000,3.93310595703125,-0.3065032958984375,-0.949859619140625,-0.0270233154296875
1761818166786033000,3.943032958984375,-0.31719970703125,-0.9544830322265625,-0.02984619140625
1761818166795960000,3.9529599609375,-0.31549072265625,-0.9532470703125,-0.0352630615234375
1761818166805888000,3.962887939453125,-0.3147125244140625,-0.9510345458984375,-0.030914306640625
1761818166815815000,3.97281494140625,-0.3083038330078125,-0.956268310546875,-0.0215301513671875
1761818166825741800,3.982741943359375,-0.3015289306640625,-0.9540557861328125,-0.0167236328125
1761818166835668700,3.992668701171875,-0.30462646484375,-0.9547119140625,-0.019256591796875
1761818166845596000,4.002595947265625,-0.305999755859375,-0.95416259765625,-0.022552490234375
1761818166855522800,4.012522705078125,-0.303436279296875,-0.947540283203125,-0.032318115234375
1761818166865450800,4.02245068359375,-0.3131103515625,-0.9489288330078125,-0.03668212890625
1761818166875378000,4.0323779296875,-0.31103515625,-0.95684814453125,-0.031402587890625
1761818166885304800,4.042304931640625,-0.3030853271484375,-0.9485321044921875,-0.0290374755859375
1761818166895232000,4.05223193359375,-0.3072052001953125,-0.941680908203125,-0.0279388427734375
1761818166905159000,4.062158935546875,-0.3157501220703125,-0.949676513671875,-0.020477294921875
1761818166915085800,4.0720859375,-0.323638916015625,-0.9517059326171875,-0.0261077880859375
1761818166925012700,4.0820126953125,-0.3157501220703125,-0.955841064453125,-0.028045654296875
1761818166934941000,4.09194091796875,-0.3117218017578125,-0.95758056640625,-0.0190277099609375
1761818166944867800,4.101867919921875,-0.31195068359375,-0.9558563232421875,-0.0035552978515625
1761818166954795000,4.111794921875,-0.29766845703125,-0.9642181396484375,0.0012359619140625
1761818166964722000,4.121721923828125,-0.29437255859375,-0.972747802734375,-0.0075531005859375
1761818166974648800,4.13164892578125,-0.2954254150390625,-0.9690093994140625,-0.026214599609375
1761818166984576000,4.141575927734375,-0.2953033447265625,-0.961273193359375,-0.038909912109375
1761818166994502700,4.151502685546875,-0.3026580810546875,-0.9546051025390625,-0.0382232666015625
1761818167004430800,4.161430908203125,-0.313995361328125,-0.9557037353515625,-0.027313232421875
1761818167014357800,4.171357666015625,-0.30609130859375,-0.9427947998046875,-0.0309295654296875
1761818167024285000,4.181284912109375,-0.314056396484375,-0.94647216796875,-0.0268402099609375
1761818167034211800,4.1912119140625,-0.3238677978515625,-0.95245361328125,-0.02252197265625
1761818167044139000,4.201138916015625,-0.3290252685546875,-0.9468994140625,-0.0223541259765625
1761818167054066000,4.21106591796875,-0.3216552734375,-0.9438629150390625,-0.02197265625
1761818167063993900,4.220993896484375,-0.3131866455078125,-0.9520416259765625,-0.0212249755859375
1761818167073921000,4.230921142578125,-0.315032958984375,-0.9540863037109375,-0.0206451416015625
1761818167083847700,4.24084765625,-0.3114013671875,-0.95489501953125,-0.022003173828125
1761818167093774800,4.25077490234375,-0.2989959716796875,-0.95672607421875,-0.019775390625
1761818167103701800,4.26070166015625,-0.3038177490234375,-0.948699951171875,-0.0152435302734375
1761818167113629000,4.27062890625,-0.3093414306640625,-0.9486846923828125,-0.0180511474609375
1761818167123555600,4.2805556640625,-0.32122802734375,-0.9521331787109375,-0.0264434814453125
1761818167133482800,4.290482666015625,-0.3254241943359375,-0.9528656005859375,-0.0321807861328125
1761818167143410700,4.30041064453125,-0.316131591796875,-0.9534454345703125,-0.03070068359375
1761818167153337600,4.310337646484375,-0.3082733154296875,-0.9512786865234375,-0.02777099609375
1761818167163264800,4.3202646484375,-0.3119964599609375,-0.9503173828125,-0.021728515625
1761818167173191700,4.330191650390625,-0.311798095703125,-0.9487152099609375,-0.017608642578125
1761818167183118800,4.340118896484375,-0.3169708251953125,-0.94122314453125,-0.016632080078125
1761818167193045800,4.350045654296875,-0.3277740478515625,-0.948394775390625,-0.0212860107421875
1761818167202974000,4.359973876953125,-0.315826416015625,-0.9620819091796875,-0.0287933349609375
1761818167212900900,4.36990087890625,-0.321197509765625,-0.943695068359375,-0.0272216796875
1761818167222827800,4.379827880859375,-0.3185272216796875,-0.9467010498046875,-0.022186279296875
1761818167232754700,4.389754638671875,-0.305755615234375,-0.9600677490234375,-0.0267181396484375
1761818167242681900,4.399681884765625,-0.3155975341796875,-0.9587554931640625,-0.035308837890625
1761818167252608800,4.40960888671875,-0.3249053955078125,-0.9517059326171875,-0.02923583984375
1761818167262536000,4.419535888671875,-0.32061767578125,-0.94976806640625,-0.0261077880859375
1761818167272462800,4.429462890625,-0.31817626953125,-0.957000732421875,-0.024383544921875
1761818167282390800,4.439390869140625,-0.3123626708984375,-0.95672607421875,-0.0241546630859375
1761818167292318000,4.44931787109375,-0.31268310546875,-0.94775390625,-0.0259246826171875
1761818167302244600,4.45924462890625,-0.318023681640625,-0.943328857421875,-0.03143310546875
1761818167312171800,4.469171875,-0.3280029296875,-0.9453887939453125,-0.031219482421875
1761818167322098700,4.4790986328125,-0.328277587890625,-0.9408111572265625,-0.0269317626953125
1761818167332025900,4.48902587890625,-0.3312225341796875,-0.9371795654296875,-0.0240020751953125
1761818167341953800,4.498953857421875,-0.3290863037109375,-0.9483489990234375,-0.0277099609375
1761818167351880700,4.508880615234375,-0.3296966552734375,-0.95574951171875,-0.02996826171875
1761818167361808000,4.518807861328125,-0.32305908203125,-0.9562835693359375,-0.02203369140625
1761818167371734800,4.52873486328125,-0.3139801025390625,-0.9552764892578125,-0.01300048828125
1761818167381661700,4.53866162109375,-0.3188323974609375,-0.9486846923828125,-0.015167236328125
1761818167391588600,4.548588623046875,-0.3210601806640625,-0.9504852294921875,-0.0242767333984375
1761818167401515800,4.558515869140625,-0.32574462890625,-0.9499969482421875,-0.0302886962890625
1761818167411443700,4.568443603515625,-0.3311004638671875,-0.9469146728515625,-0.0368804931640625
1761818167421370600,4.57837060546875,-0.337188720703125,-0.94549560546875,-0.033203125
1761818167431297800,4.5882978515625,-0.3435211181640625,-0.9447784423828125,-0.037261962890625
1761818167441224700,4.598224609375,-0.349578857421875,-0.9522705078125,-0.0388031005859375
1761818167451152000,4.60815185546875,-0.3526153564453125,-0.96026611328125,-0.0435943603515625
1761818167461078500,4.61807861328125,-0.353973388671875,-0.954559326171875,-0.0439605712890625
1761818167471005700,4.628005615234375,-0.373077392578125,-0.9604949951171875,-0.0592041015625
1761818167480932600,4.6379326171875,-0.4309539794921875,-0.9481964111328125,-0.055999755859375
1761818167490860800,4.64786083984375,-0.486083984375,-0.9284210205078125,-0.0669097900390625
1761818167500787700,4.65778759765625,-0.53387451171875,-0.9208221435546875,-0.090576171875
1761818167510715000,4.66771484375,-0.57098388671875,-0.9155120849609375,-0.0887908935546875
1761818167520641800,4.677641845703125,-0.5816650390625,-0.9281768798828125,-0.0746002197265625
1761818167530569000,4.68756884765625,-0.5286407470703125,-0.990234375,-0.0866241455078125
1761818167540496000,4.697495849609375,-0.4538421630859375,-1.072906494140625,-0.1263427734375
1761818167550422800,4.7074228515625,-0.4698638916015625,-1.1493377685546875,-0.239715576171875
1761818167560350700,4.717350830078125,-0.5489654541015625,-1.2685546875,-0.2803192138671875
1761818167570277600,4.727277587890625,-0.64556884765625,-1.3356170654296875,-0.1745452880859375
1761818167580204800,4.737204833984375,-0.750030517578125,-1.3773040771484375,-0.009552001953125
1761818167590131700,4.747131591796875,-0.7674560546875,-1.389129638671875,0.1940765380859375
1761818167600059000,4.757058837890625,-0.7476806640625,-1.4509735107421875,0.3886566162109375
1761818167609985800,4.76698583984375,-0.6639404296875,-1.5415802001953125,0.4620513916015625
1761818167619913000,4.776912841796875,-0.6396484375,-1.5473175048828125,0.455413818359375
1761818167629841000,4.7868408203125,-0.6106414794921875,-1.466400146484375,0.3849945068359375
1761818167639767600,4.796767578125,-0.509735107421875,-1.3834228515625,0.3080291748046875
1761818167649694700,4.80669482421875,-0.4542236328125,-1.2752838134765625,0.253204345703125
1761818167659621600,4.81662158203125,-0.4109039306640625,-1.1533203125,0.2146453857421875
1761818167669548800,4.826548828125,-0.3648834228515625,-1.0340728759765625,0.1815948486328125
1761818167679475700,4.836475830078125,-0.2719573974609375,-0.94549560546875,0.150665283203125
1761818167689403000,4.84640283203125,-0.1791229248046875,-0.8760223388671875,0.1277618408203125
1761818167699330800,4.856330810546875,-0.0880889892578125,-0.816650390625,0.0942535400390625
1761818167709257700,4.8662578125,-0.0426025390625,-0.8142242431640625,0.0479888916015625
1761818167719185000,4.876184814453125,-0.073760986328125,-0.850311279296875,0.038482666015625
1761818167729111600,4.886111572265625,-0.153106689453125,-0.872802734375,0.083740234375
1761818167739038700,4.896038818359375,-0.2100830078125,-0.8538818359375,0.133636474609375
1761818167748965600,4.905965576171875,-0.24560546875,-0.7963714599609375,0.169219970703125
1761818167758892800,4.915892822265625,-0.214508056640625,-0.7552337646484375,0.1700286865234375
1761818167768819700,4.92581982421875,-0.1722412109375,-0.71832275390625,0.141571044921875
1761818167778748000,4.935747802734375,-0.1795196533203125,-0.6484222412109375,0.077789306640625
1761818167788674800,4.9456748046875,-0.0932464599609375,-0.5718841552734375,-0.0284271240234375
1761818167798602000,4.95560205078125,0.0640411376953125,-0.4996490478515625,-0.10992431640625
1761818167808528600,4.965528564453125,0.212677001953125,-0.451324462890625,-0.1090545654296875
1761818167818455800,4.975455810546875,0.373443603515625,-0.4360198974609375,-0.0510101318359375
1761818167828382700,4.9853828125,0.5712432861328125,-0.4756927490234375,0.04119873046875
1761818167838310000,4.995309814453125,0.7986297607421875,-0.5467071533203125,0.1359405517578125
1761818167848237800,5.00523779296875,1.0138702392578125,-0.6127777099609375,0.188751220703125
1761818167858164700,5.015164794921875,1.19427490234375,-0.589508056640625,0.1564178466796875
1761818167868092000,5.025091796875,1.3621673583984375,-0.49493408203125,0.007904052734375
1761818167878018800,5.035018798828125,1.40966796875,-0.357452392578125,-0.230255126953125
1761818167887945700,5.04494580078125,1.41912841796875,-0.18438720703125,-0.4668731689453125
1761818167897872600,5.05487255859375,1.463531494140625,-0.066070556640625,-0.6519927978515625
1761818167907799800,5.0647998046875,1.3616790771484375,-0.0078125,-0.66754150390625
1761818167917727700,5.074727783203125,1.149993896484375,-0.06866455078125,-0.4751434326171875
1761818167927654700,5.084654541015625,0.995361328125,-0.1904296875,-0.221282958984375
1761818167937581800,5.094581787109375,0.755828857421875,-0.2755126953125,0.0214691162109375
1761818167947508700,5.1045087890625,0.4595794677734375,-0.205047607421875,0.1893310546875
1761818167957436000,5.114435791015625,0.1845245361328125,0.0250701904296875,0.1479339599609375
1761818167967362600,5.124362548828125,0.1714019775390625,0.1748199462890625,0.077850341796875
1761818167977289700,5.134289794921875,0.404815673828125,0.434326171875,0.3255767822265625
1761818167987216600,5.144216552734375,-0.06640625,0.79864501953125,0.85125732421875
1761818167997144600,5.15414453125,-1.80474853515625,1.1759185791015625,1.435516357421875
1761818168007071700,5.16407177734375,-4.272125244140625,1.0364227294921875,1.7755889892578125
1761818168016998700,5.17399853515625,-6.58099365234375,0.484405517578125,1.863250732421875
1761818168026925800,5.18392578125,-7.0566864013671875,0.07415771484375,1.798431396484375
1761818168036852700,5.193852783203125,-4.3726654052734375,-0.167236328125,1.042877197265625
1761818168046780000,5.20377978515625,-2.04364013671875,-0.0756378173828125,0.0923919677734375
1761818168056706600,5.21370654296875,-1.7055206298828125,0.26055908203125,-0.2479248046875
1761818168066634800,5.223634765625,-0.914031982421875,-0.095367431640625,-0.128692626953125
1761818168076561400,5.2335615234375,-0.16436767578125,-0.6713409423828125,0.0484161376953125
1761818168086488600,5.243488525390625,-0.180572509765625,-0.7948760986328125,0.2380523681640625
1761818168096415200,5.253415283203125,-0.57275390625,-0.4578704833984375,0.4704437255859375
1761818168106342400,5.26334228515625,-0.1551666259765625,-0.3109283447265625,0.4880523681640625
1761818168116269300,5.273269287109375,0.0941314697265625,-0.2758941650390625,0.49981689453125
1761818168126196500,5.283196533203125,-0.11419677734375,-0.240234375,0.4903106689453125
1761818168136124400,5.29312451171875,-0.3456878662109375,-0.33856201171875,0.4176483154296875
1761818168146051300,5.30305126953125,-0.6152496337890625,-0.5108642578125,0.4058837890625
1761818168155978500,5.312978515625,-0.8144073486328125,-0.685302734375,0.415679931640625
1761818168165905400,5.322905517578125,-0.9478912353515625,-0.7552032470703125,0.381317138671875
1761818168175832300,5.332832275390625,-1.01318359375,-0.619598388671875,0.292205810546875
1761818168185759200,5.34275927734375,-0.9538116455078125,-0.3788604736328125,0.241790771484375
1761818168195686400,5.352686279296875,-0.8032989501953125,-0.276092529296875,0.308197021484375
1761818168205613300,5.36261328125,-0.768707275390625,-0.2808685302734375,0.4254302978515625
1761818168215541200,5.372541259765625,-0.8379364013671875,-0.333587646484375,0.5673370361328125
1761818168225468400,5.382468505859375,-0.9571533203125,-0.3271942138671875,0.5584869384765625
1761818168235395300,5.392395263671875,-0.9700469970703125,-0.2947540283203125,0.5201873779296875
1761818168245322500,5.402322509765625,-0.91827392578125,-0.288421630859375,0.48406982421875
1761818168255249400,5.41224951171875,-0.90789794921875,-0.2883758544921875,0.40191650390625
1761818168265176300,5.42217626953125,-0.9166107177734375,-0.321197509765625,0.3682403564453125
1761818168275103200,5.432103271484375,-0.9169921875,-0.34051513671875,0.385101318359375
1761818168285030400,5.442030517578125,-0.8574676513671875,-0.3443145751953125,0.3954010009765625
1761818168294958300,5.451958251953125,-0.803070068359375,-0.33685302734375,0.4118194580078125
1761818168304885500,5.461885498046875,-0.793792724609375,-0.33477783203125,0.4217071533203125
1761818168314812400,5.4718125,-0.8065338134765625,-0.3468780517578125,0.4138031005859375
1761818168324739600,5.481739501953125,-0.80596923828125,-0.34100341796875,0.3921966552734375
1761818168334666500,5.49166650390625,-0.8262786865234375,-0.326202392578125,0.373504638671875
1761818168344593400,5.501593505859375,-0.8704071044921875,-0.3083648681640625,0.3638916015625
1761818168354520300,5.511520263671875,-0.9199371337890625,-0.2745361328125,0.3758087158203125
1761818168364448300,5.5214482421875,-0.95721435546875,-0.2655181884765625,0.404327392578125
1761818168374375400,5.53137548828125,-0.9467315673828125,-0.2879180908203125,0.4306640625
1761818168384302300,5.54130224609375,-0.8875732421875,-0.2991180419921875,0.4358673095703125
1761818168394229500,5.5512294921875,-0.8446807861328125,-0.308990478515625,0.43182373046875
1761818168404156400,5.561156494140625,-0.8300323486328125,-0.3235321044921875,0.4419097900390625
1761818168414083600,5.57108349609375,-0.826385498046875,-0.3221588134765625,0.447418212890625
1761818168424010200,5.58101025390625,-0.85040283203125,-0.3052520751953125,0.4434814453125
1761818168433937400,5.5909375,-0.8629150390625,-0.3085174560546875,0.435760498046875
1761818168443865300,5.600865234375,-0.8656005859375,-0.308380126953125,0.414886474609375
1761818168453792300,5.610792236328125,-0.87841796875,-0.296112060546875,0.4011688232421875
1761818168463719400,5.620719482421875,-0.8652191162109375,-0.308197021484375,0.390960693359375
1761818168473646300,5.630646240234375,-0.8464202880859375,-0.3167572021484375,0.399749755859375
1761818168483573500,5.640573486328125,-0.830902099609375,-0.29669189453125,0.4137115478515625
1761818168493500400,5.65050048828125,-0.8365020751953125,-0.296630859375,0.420501708984375
1761818168503427300,5.66042724609375,-0.8434600830078125,-0.3132171630859375,0.415679931640625
1761818168513354200,5.670354248046875,-0.85382080078125,-0.3061065673828125,0.391357421875
1761818168523282200,5.6802822265625,-0.8865966796875,-0.30621337890625,0.378875732421875
1761818168533209300,5.690209228515625,-0.901275634765625,-0.3144683837890625,0.3860626220703125
1761818168543136300,5.70013623046875,-0.8901519775390625,-0.305694580078125,0.3979034423828125
1761818168553063400,5.7100634765625,-0.8744659423828125,-0.2968292236328125,0.4011688232421875
1761818168562990300,5.719990234375,-0.8375396728515625,-0.3050994873046875,0.3924407958984375
1761818168572917500,5.72991748046875,-0.83721923828125,-0.309051513671875,0.4024810791015625
1761818168582844400,5.739844482421875,-0.86279296875,-0.3134765625,0.422271728515625
1761818168592771300,5.749771240234375,-0.860687255859375,-0.3021240234375,0.4150238037109375
1761818168602699300,5.75969921875,-0.8710784912109375,-0.2918853759765625,0.3992462158203125
1761818168612626400,5.76962646484375,-0.872802734375,-0.3023223876953125,0.3943939208984375
1761818168622553300,5.77955322265625,-0.8666534423828125,-0.30072021484375,0.3964996337890625
1761818168632480300,5.789480224609375,-0.87176513671875,-0.2999725341796875,0.406951904296875
1761818168642407400,5.799407470703125,-0.8544158935546875,-0.3098907470703125,0.40838623046875
1761818168652334300,5.809334228515625,-0.849212646484375,-0.302764892578125,0.4000244140625
1761818168662261500,5.819261474609375,-0.8654327392578125,-0.3042755126953125,0.4003143310546875
1761818168672189400,5.829189453125,-0.864105224609375,-0.3136444091796875,0.4027557373046875
1761818168682116400,5.839116455078125,-0.86810302734375,-0.3047943115234375,0.4003753662109375
1761818168692043300,5.849043212890625,-0.8795013427734375,-0.2957611083984375,0.398468017578125
1761818168701970400,5.858970458984375,-0.881744384765625,-0.29974365234375,0.3993072509765625
1761818168711897300,5.8688974609375,-0.8685455322265625,-0.2974700927734375,0.3963623046875
1761818168721824500,5.878824462890625,-0.863800048828125,-0.2959136962890625,0.3946075439453125
1761818168731751400,5.88875146484375,-0.8525543212890625,-0.30413818359375,0.39569091796875
1761818168741678600,5.8986787109375,-0.8390960693359375,-0.3075714111328125,0.4015960693359375
1761818168751606500,5.9086064453125,-0.8365325927734375,-0.301361083984375,0.4066162109375
1761818168761533400,5.918533447265625,-0.86492919921875,-0.297454833984375,0.407684326171875
1761818168771460400,5.92846044921875,-0.880096435546875,-0.3042144775390625,0.4030609130859375
1761818168781387300,5.93838720703125,-0.8852386474609375,-0.2929229736328125,0.39031982421875
1761818168791314400,5.948314453125,-0.89141845703125,-0.2864837646484375,0.387847900390625
1761818168801241300,5.958241455078125,-0.8669281005859375,-0.301300048828125,0.3934326171875
1761818168811168500,5.96816845703125,-0.8452301025390625,-0.3024749755859375,0.404632568359375
1761818168821095400,5.978095458984375,-0.8536224365234375,-0.3002777099609375,0.414764404296875
1761818168831023400,5.9880234375,-0.857269287109375,-0.3048248291015625,0.4109039306640625
1761818168840950500,5.997950439453125,-0.8648834228515625,-0.30462646484375,0.39752197265625
1761818168850877200,6.007877197265625,-0.8769683837890625,-0.303131103515625,0.3916778564453125
1761818168860804400,6.017804443359375,-0.8723602294921875,-0.2981414794921875,0.3922271728515625
1761818168870731300,6.027731201171875,-0.8678131103515625,-0.2925567626953125,0.3886871337890625
1761818168880658400,6.037658447265625,-0.873046875,-0.29595947265625,0.3898773193359375
1761818168890585300,6.04758544921875,-0.870361328125,-0.303375244140625,0.3918304443359375
1761818168900512500,6.057512451171875,-0.8566131591796875,-0.310333251953125,0.399078369140625
1761818168910440400,6.0674404296875,-0.8477783203125,-0.3005828857421875,0.401702880859375
1761818168920367400,6.077367431640625,-0.8692626953125,-0.2909088134765625,0.404449462890625
1761818168930294300,6.087294189453125,-0.8806915283203125,-0.301177978515625,0.401885986328125
1761818168940221200,6.09722119140625,-0.870147705078125,-0.3005828857421875,0.3894500732421875
1761818168950148400,6.1071484375,-0.8715972900390625,-0.2982025146484375,0.3899078369140625
1761818168960075300,6.1170751953125,-0.8657073974609375,-0.3036651611328125,0.39813232421875
1761818168970002400,6.12700244140625,-0.869964599609375,-0.2988128662109375,0.3965606689453125
1761818168979929300,6.136929443359375,-0.87261962890625,-0.29766845703125,0.3951416015625
1761818168989857500,6.146857421875,-0.8643341064453125,-0.3011322021484375,0.39306640625
1761818168999784400,6.156784423828125,-0.856475830078125,-0.300933837890625,0.389495849609375
1761818169009711400,6.16671142578125,-0.863861083984375,-0.3018798828125,0.3948974609375
1761818169019638300,6.17663818359375,-0.862579345703125,-0.30303955078125,0.40045166015625
1761818169029565400,6.1865654296875,-0.867889404296875,-0.2945404052734375,0.3965911865234375
1761818169039492400,6.196492431640625,-0.8712005615234375,-0.304107666015625,0.39605712890625
1761818169049419500,6.20641943359375,-0.85858154296875,-0.31097412109375,0.4024658203125
1761818169059346400,6.216346435546875,-0.860870361328125,-0.2944183349609375,0.4032745361328125
1761818169069274400,6.2262744140625,-0.8660888671875,-0.2939300537109375,0.402679443359375
1761818169079200500,6.236200439453125,-0.874359130859375,-0.3012847900390625,0.39666748046875
1761818169089127400,6.24612744140625,-0.8813629150390625,-0.2998504638671875,0.387420654296875
1761818169099054300,6.256054443359375,-0.87335205078125,-0.2968597412109375,0.3845367431640625
1761818169108981200,6.265981201171875,-0.8643646240234375,-0.30352783203125,0.3919830322265625
1761818169118908400,6.275908447265625,-0.8567047119140625,-0.3096771240234375,0.4022674560546875
1761818169128835300,6.28583544921875,-0.8526611328125,-0.3064117431640625,0.4033203125
1761818169138762500,6.295762451171875,-0.8608551025390625,-0.3018951416015625,0.40423583984375
1761818169148690400,6.3056904296875,-0.876434326171875,-0.297821044921875,0.402740478515625
1761818169158617600,6.31561767578125,-0.8772735595703125,-0.2978668212890625,0.3936767578125
1761818169168544500,6.32554443359375,-0.882110595703125,-0.2968597412109375,0.38897705078125
1761818169178471400,6.335471435546875,-0.8696746826171875,-0.29931640625,0.390899658203125
1761818169188398300,6.3453984375,-0.86077880859375,-0.2956695556640625,0.3947601318359375
1761818169198325500,6.355325439453125,-0.8682098388671875,-0.296600341796875,0.398193359375
1761818169208252400,6.36525244140625,-0.872802734375,-0.3052215576171875,0.3972320556640625
1761818169218179600,6.3751796875,-0.8675537109375,-0.303253173828125,0.393157958984375
1761818169228107500,6.385107421875,-0.8657379150390625,-0.2982025146484375,0.3873748779296875
1761818169238034400,6.395034423828125,-0.859619140625,-0.3026885986328125,0.3850250244140625
1761818169247961600,6.404961669921875,-0.86199951171875,-0.3058319091796875,0.3834228515625
1761818169257888300,6.41488818359375,-0.86541748046875,-0.299896240234375,0.3821258544921875
1761818169267815400,6.4248154296875,-0.86865234375,-0.2950286865234375,0.3862457275390625
1761818169277742300,6.434742431640625,-0.8731689453125,-0.287811279296875,0.3872222900390625
1761818169287669500,6.44466943359375,-0.8796234130859375,-0.2979583740234375,0.387359619140625
1761818169297596400,6.454596435546875,-0.8628082275390625,-0.31060791015625,0.3921051025390625
1761818169307523600,6.464523681640625,-0.8631591796875,-0.3006744384765625,0.3933868408203125
1761818169317451500,6.474451416015625,-0.8778076171875,-0.2951812744140625,0.3953399658203125
1761818169327378400,6.48437841796875,-0.8757781982421875,-0.30023193359375,0.395782470703125
1761818169337305300,6.494305419921875,-0.8658294677734375,-0.2957763671875,0.3873443603515625
1761818169347232300,6.504232177734375,-0.8675994873046875,-0.2984619140625,0.38262939453125
1761818169357159400,6.514159423828125,-0.8670196533203125,-0.299652099609375,0.388214111328125
1761818169367086300,6.52408642578125,-0.867950439453125,-0.2984619140625,0.3907318115234375
1761818169377013500,6.534013427734375,-0.87078857421875,-0.3006134033203125,0.3912811279296875
1761818169386940400,6.5439404296875,-0.881500244140625,-0.299346923828125,0.3868255615234375
1761818169396868400,6.553868408203125,-0.8802337646484375,-0.29656982421875,0.3819732666015625
1761818169406795500,6.56379541015625,-0.87518310546875,-0.299530029296875,0.3788909912109375
1761818169416722400,6.573722412109375,-0.8639068603515625,-0.3014373779296875,0.384429931640625
1761818169426649300,6.5836494140625,-0.864227294921875,-0.294647216796875,0.3907318115234375
1761818169436576300,6.593576171875,-0.869354248046875,-0.2994842529296875,0.3956451416015625
1761818169446503400,6.60350341796875,-0.864013671875,-0.30267333984375,0.39459228515625
1761818169456430300,6.613430419921875,-0.863250732421875,-0.2981109619140625,0.3890838623046875
1761818169466357500,6.623357421875,-0.8645782470703125,-0.2987213134765625,0.3946990966796875
1761818169476285400,6.633285400390625,-0.8772430419921875,-0.2939300537109375,0.39984130859375
1761818169486212600,6.643212646484375,-0.880859375,-0.2936859130859375,0.3931427001953125
1761818169496139500,6.653139404296875,-0.87384033203125,-0.296173095703125,0.385284423828125
1761818169506066400,6.66306640625,-0.875244140625,-0.2960052490234375,0.3850555419921875
1761818169515993300,6.672993408203125,-0.8724822998046875,-0.2992401123046875,0.38702392578125
1761818169525920500,6.68292041015625,-0.8636322021484375,-0.2981414794921875,0.3856353759765625
1761818169535847400,6.692847412109375,-0.8669891357421875,-0.297698974609375,0.394073486328125
1761818169545774300,6.7027744140625,-0.8779296875,-0.29803466796875,0.3990325927734375
1761818169555701500,6.712701416015625,-0.888641357421875,-0.2977447509765625,0.3921966552734375
1761818169565629400,6.72262939453125,-0.8991851806640625,-0.303436279296875,0.38531494140625
1761818169575556600,6.732556640625,-0.905059814453125,-0.315216064453125,0.3847808837890625
1761818169585483300,6.742483154296875,-0.9039306640625,-0.3229522705078125,0.386322021484375
1761818169595410400,6.752410400390625,-0.8989410400390625,-0.3299713134765625,0.39129638671875
1761818169605337300,6.76233740234375,-0.8879547119140625,-0.316864013671875,0.3990631103515625
1761818169615264500,6.772264404296875,-0.879791259765625,-0.295928955078125,0.402191162109375
1761818169625191400,6.78219140625,-0.8612060546875,-0.274322509765625,0.40924072265625
1761818169635118600,6.79211865234375,-0.86102294921875,-0.2595977783203125,0.4010009765625
1761818169645046500,6.802046630859375,-0.883148193359375,-0.271728515625,0.3900146484375
1761818169654973400,6.811973388671875,-0.9225311279296875,-0.294921875,0.3653411865234375
1761818169664900600,6.821900634765625,-0.9664459228515625,-0.3199920654296875,0.3447723388671875
1761818169674827300,6.8318271484375,-0.9910736083984375,-0.325408935546875,0.3389129638671875
1761818169684754400,6.84175439453125,-1.00592041015625,-0.31671142578125,0.3206634521484375
1761818169694681300,6.851681396484375,-1.01837158203125,-0.32611083984375,0.3338623046875
1761818169704608500,6.8616083984375,-1.0009307861328125,-0.3490447998046875,0.37847900390625
1761818169714535400,6.871535400390625,-0.9978179931640625,-0.3389739990234375,0.3786163330078125
1761818169724462600,6.881462646484375,-0.98931884765625,-0.3151702880859375,0.37255859375
1761818169734390500,6.891390625,-0.970123291015625,-0.2896728515625,0.3493499755859375
1761818169744317400,6.9013173828125,-0.9748687744140625,-0.27838134765625,0.29351806640625
1761818169754244400,6.911244384765625,-1.01910400390625,-0.31048583984375,0.2604217529296875
1761818169764171300,6.921171142578125,-1.0907135009765625,-0.3420562744140625,0.2325592041015625
1761818169774098400,6.931098388671875,-1.19134521484375,-0.3667755126953125,0.192047119140625
1761818169784025300,6.941025390625,-1.3171539306640625,-0.385589599609375,0.1462860107421875
1761818169793952500,6.950952392578125,-1.4405975341796875,-0.4155426025390625,0.15167236328125
1761818169803879400,6.96087939453125,-1.518035888671875,-0.4439239501953125,0.226654052734375
1761818169813807400,6.970807373046875,-1.464874267578125,-0.4377593994140625,0.2886810302734375
1761818169823734500,6.980734619140625,-1.3560943603515625,-0.3723297119140625,0.3128204345703125
1761818169833661400,6.990661376953125,-1.1913604736328125,-0.2524261474609375,0.3071441650390625
1761818169843588400,7.00058837890625,-1.03826904296875,-0.12847900390625,0.2281036376953125
1761818169853515300,7.010515380859375,-0.892913818359375,-0.064849853515625,0.0939788818359375
1761818169863442400,7.0204423828125,-0.7906951904296875,-0.051055908203125,-0.0105133056640625
1761818169873369300,7.030369384765625,-0.744232177734375,-0.101776123046875,-0.0508270263671875
1761818169883296500,7.040296630859375,-0.7338714599609375,-0.196563720703125,-0.05706787109375
1761818169893223400,7.050223388671875,-0.7131805419921875,-0.28216552734375,-0.0226593017578125
1761818169903151600,7.060151611328125,-0.6750640869140625,-0.32781982421875,-0.008270263671875
1761818169913078300,7.070078369140625,-0.6469573974609375,-0.3501739501953125,-0.0361785888671875
1761818169923005400,7.08000537109375,-0.5891265869140625,-0.373779296875,-0.08795166015625
1761818169932932400,7.089932373046875,-0.5631561279296875,-0.384185791015625,-0.0687103271484375
1761818169942859500,7.099859619140625,-0.551025390625,-0.406402587890625,0.0380706787109375
1761818169952786400,7.109786376953125,-0.517913818359375,-0.4407501220703125,0.1413726806640625
1761818169962713600,7.119713623046875,-0.44854736328125,-0.4734344482421875,0.21539306640625
1761818169972640500,7.129640625,-0.3524017333984375,-0.4947509765625,0.2581939697265625
1761818169982567400,7.1395673828125,-0.239288330078125,-0.4793853759765625,0.262908935546875
1761818169992495600,7.14949560546875,-0.129302978515625,-0.455810546875,0.2075042724609375
1761818170002422300,7.15942236328125,-0.0426788330078125,-0.4186248779296875,0.08251953125
1761818170012349400,7.169349365234375,0.03326416015625,-0.3157501220703125,-0.0723876953125
1761818170022276400,7.1792763671875,0.059906005859375,-0.183258056640625,-0.049041748046875
1761818170032203500,7.18920361328125,0.047943115234375,-0.109130859375,0.1435394287109375
1761818170042130400,7.19913037109375,0.185150146484375,-0.1203765869140625,0.27838134765625
1761818170052057600,7.2090576171875,0.423370361328125,-0.154815673828125,0.4180145263671875
1761818170061984500,7.218984619140625,0.6457672119140625,-0.0804443359375,0.5756988525390625
1761818170071911400,7.228911376953125,0.84564208984375,0.0962982177734375,0.710906982421875
1761818170081840400,7.23884033203125,1.0078887939453125,0.26519775390625,0.8510589599609375
1761818170091767300,7.248767333984375,1.1224822998046875,0.392303466796875,0.9749908447265625
1761818170101694500,7.258694580078125,1.1868896484375,0.4838409423828125,1.047821044921875
1761818170111621400,7.268621337890625,1.2223663330078125,0.5078887939453125,1.099334716796875
1761818170121548300,7.27854833984375,1.2303924560546875,0.526763916015625,1.1378936767578125
1761818170131475200,7.28847509765625,1.1953582763671875,0.6351776123046875,1.17547607421875
1761818170141402400,7.29840234375,1.071533203125,0.854949951171875,1.17523193359375
1761818170151329300,7.308329345703125,0.9961090087890625,1.019012451171875,1.261138916015625
1761818170161256200,7.318256103515625,1.128204345703125,1.222320556640625,1.546722412109375
1761818170171184400,7.328184326171875,-0.6791839599609375,1.20220947265625,2.8587493896484375
1761818170181111300,7.338111328125,-6.4035797119140625,0.3872528076171875,5.64483642578125
1761818170191038500,7.34803857421875,-5.3865814208984375,1.5655059814453125,3.1862335205078125
1761818170200965400,7.35796533203125,-2.096771240234375,1.550445556640625,1.3766326904296875
1761818170210892300,7.367892333984375,-1.5255126953125,0.85260009765625,1.150299072265625
1761818170220819200,7.377819091796875,-2.161590576171875,-0.210296630859375,0.358001708984375
1761818170230746400,7.387746337890625,-1.2795867919921875,-0.28900146484375,0.047119140625
1761818170240673300,7.39767333984375,0.15155029296875,0.0736846923828125,0.20904541015625
1761818170250600400,7.407600341796875,0.1281890869140625,0.622406005859375,0.5474395751953125
1761818170260528400,7.4175283203125,-0.246734619140625,0.711273193359375,1.0330657958984375
1761818170270455300,7.427455322265625,-0.1257171630859375,0.473541259765625,1.1361541748046875
1761818170280382500,7.437382568359375,-0.19403076171875,0.27178955078125,1.0528411865234375
1761818170290309000,7.44730908203125,-0.3704071044921875,0.2455596923828125,1.0041656494140625
1761818170300236300,7.457236328125,-0.45037841796875,0.283172607421875,1.0154876708984375
1761818170310163200,7.4671630859375,-0.4337310791015625,0.3311309814453125,1.0122222900390625
1761818170320090400,7.47709033203125,-0.3633575439453125,0.358245849609375,0.9073486328125
1761818170330017300,7.487017333984375,-0.420745849609375,0.32672119140625,0.851837158203125
1761818170339944400,7.4969443359375,-0.4116668701171875,0.229400634765625,0.8448486328125
1761818170349872400,7.506872314453125,-0.356475830078125,0.15167236328125,0.8824462890625
1761818170359799300,7.51679931640625,-0.2895965576171875,0.126739501953125,0.9026641845703125
1761818170369726200,7.526726318359375,-0.1968231201171875,0.15032958984375,0.8425750732421875
1761818170379653000,7.536653076171875,-0.194915771484375,0.2103118896484375,0.7746124267578125
1761818170389580300,7.546580322265625,-0.2331085205078125,0.2290496826171875,0.8456573486328125
1761818170399507200,7.556507080078125,-0.2837677001953125,0.247344970703125,0.9074554443359375
1761818170409434400,7.566434326171875,-0.36004638671875,0.25775146484375,0.8940887451171875
1761818170419361300,7.576361328125,-0.3964385986328125,0.2629241943359375,0.8465118408203125
1761818170429288400,7.586288330078125,-0.414276123046875,0.2498779296875,0.837860107421875
1761818170439215000,7.596215087890625,-0.4117431640625,0.2411651611328125,0.83941650390625
1761818170449143300,7.606143310546875,-0.4006805419921875,0.2584381103515625,0.838134765625
1761818170459070200,7.6160703125,-0.377685546875,0.26092529296875,0.8553009033203125
1761818170468997000,7.6259970703125,-0.3569488525390625,0.2537841796875,0.8813018798828125
1761818170478924300,7.63592431640625,-0.35980224609375,0.27593994140625,0.8924560546875
1761818170488851200,7.645851318359375,-0.3629150390625,0.2932281494140625,0.893798828125
1761818170498778400,7.6557783203125,-0.3779449462890625,0.2996978759765625,0.90191650390625
1761818170508705300,7.665705322265625,-0.398529052734375,0.293487548828125,0.9006195068359375
1761818170518632400,7.675632568359375,-0.41937255859375,0.2713165283203125,0.88433837890625
1761818170528559000,7.68555908203125,-0.4133758544921875,0.259613037109375,0.8649749755859375
1761818170538487300,7.6954873046875,-0.39471435546875,0.267791748046875,0.8601531982421875
1761818170548414200,7.705414306640625,-0.390411376953125,0.277191162109375,0.878570556640625
1761818170558341400,7.71534130859375,-0.3785552978515625,0.2750396728515625,0.8932037353515625
1761818170568268300,7.725268310546875,-0.3719635009765625,0.2781982421875,0.883880615234375
1761818170578195500,7.735195556640625,-0.396270751953125,0.2953948974609375,0.8813629150390625
1761818170588122400,7.745122314453125,-0.407684326171875,0.296112060546875,0.8984222412109375
1761818170598049300,7.75504931640625,-0.3901214599609375,0.281402587890625,0.898193359375
1761818170607976200,7.76497607421875,-0.372802734375,0.267852783203125,0.880096435546875
1761818170617903400,7.7749033203125,-0.365509033203125,0.265777587890625,0.8751983642578125
1761818170627831300,7.784831298828125,-0.3639373779296875,0.2748870849609375,0.875
1761818170637758200,7.79475830078125,-0.362701416015625,0.284027099609375,0.871856689453125
1761818170647685400,7.804685302734375,-0.36834716796875,0.27960205078125,0.87249755859375
1761818170657612300,7.8146123046875,-0.3689422607421875,0.2664947509765625,0.873077392578125
1761818170667539500,7.82453955078125,-0.3638763427734375,0.2640380859375,0.87335205078125
1761818170677466400,7.83446630859375,-0.3699188232421875,0.266876220703125,0.8740386962890625
1761818170687393300,7.844393310546875,-0.3704071044921875,0.2659912109375,0.8746490478515625
1761818170697320200,7.8543203125,-0.3752593994140625,0.272308349609375,0.8796844482421875
1761818170707247400,7.864247314453125,-0.3721771240234375,0.2707366943359375,0.8890380859375
1761818170717174300,7.87417431640625,-0.370513916015625,0.2697601318359375,0.8925018310546875
1761818170727102200,7.884102294921875,-0.370452880859375,0.283111572265625,0.88323974609375
1761818170737029400,7.894029296875,-0.368927001953125,0.2876434326171875,0.8751373291015625
1761818170746956300,7.903956298828125,-0.363189697265625,0.28076171875,0.86492919921875
1761818170756883500,7.913883544921875,-0.3706512451171875,0.272186279296875,0.8763580322265625
1761818170766810400,7.923810302734375,-0.3694000244140625,0.2606964111328125,0.8944549560546875
1761818170776737300,7.9337373046875,-0.3583831787109375,0.2553558349609375,0.8969879150390625
1761818170786664200,7.943664306640625,-0.34356689453125,0.2628021240234375,0.894989013671875
1761818170796591400,7.95359130859375,-0.3359527587890625,0.270599365234375,0.8979034423828125
1761818170806518300,7.963518310546875,-0.3454132080078125,0.2708740234375,0.903472900390625
1761818170816445400,7.973445556640625,-0.36663818359375,0.276123046875,0.8967742919921875
1761818170826373400,7.983373291015625,-0.393035888671875,0.270294189453125,0.8833465576171875
1761818170836300300,7.99330029296875,-0.4047393798828125,0.2671356201171875,0.8739166259765625
1761818170846227500,8.0032275390625,-0.3803863525390625,0.2653961181640625,0.8636016845703125
1761818170856154000,8.013154052734375,-0.3667449951171875,0.26495361328125,0.8730316162109375
1761818170866081300,8.023081298828124,-0.35638427734375,0.25927734375,0.8887786865234375
1761818170876008200,8.03300830078125,-0.339111328125,0.2530364990234375,0.8857269287109375
1761818170885935400,8.042935302734374,-0.3411407470703125,0.2637939453125,0.8792266845703125
1761818170895862300,8.0528623046875,-0.350067138671875,0.27850341796875,0.8921966552734375
1761818170905789400,8.06278955078125,-0.3556671142578125,0.284088134765625,0.9030303955078125
1761818170915717400,8.07271728515625,-0.36798095703125,0.2857666015625,0.8909149169921875
1761818170925644300,8.082644287109375,-0.3715057373046875,0.277557373046875,0.8839263916015625
1761818170935571200,8.0925712890625,-0.3760223388671875,0.27264404296875,0.8868255615234375
1761818170945498000,8.102498046875,-0.3717041015625,0.271881103515625,0.885528564453125
1761818170955425300,8.11242529296875,-0.359771728515625,0.270294189453125,0.8819580078125
1761818170965352200,8.122352294921875,-0.3472137451171875,0.266876220703125,0.8864898681640625
1761818170975279400,8.132279296875,-0.332244873046875,0.2724609375,0.88934326171875
1761818170985206300,8.142206298828125,-0.338043212890625,0.2790985107421875,0.890472412109375
1761818170995133400,8.152133544921876,-0.3448944091796875,0.2747802734375,0.8902587890625
1761818171005060000,8.16206005859375,-0.363006591796875,0.2739715576171875,0.8874969482421875
1761818171014988300,8.17198828125,-0.3734893798828125,0.276458740234375,0.8820343017578125
1761818171024915200,8.181915283203125,-0.3772735595703125,0.278472900390625,0.87677001953125
1761818171034842400,8.19184228515625,-0.3771820068359375,0.279144287109375,0.8805999755859375
1761818171044769300,8.201769287109375,-0.3585357666015625,0.2693023681640625,0.887298583984375
1761818171054696400,8.211696533203124,-0.3430938720703125,0.262786865234375,0.8900299072265625
1761818171064623400,8.221623291015625,-0.3333587646484375,0.266815185546875,0.891204833984375
1761818171074550300,8.23155029296875,-0.343414306640625,0.27783203125,0.8898468017578125
1761818171084477700,8.241477783203125,-0.362396240234375,0.2736053466796875,0.889434814453125
1761818171094404600,8.251404541015624,-0.3689422607421875,0.2657470703125,0.88134765625
1761818171104331800,8.261331787109375,-0.373046875,0.2686309814453125,0.87969970703125
1761818171114259700,8.271259765625,-0.362762451171875,0.273162841796875,0.889617919921875
1761818171124186600,8.2811865234375,-0.3455047607421875,0.2716217041015625,0.8916778564453125
1761818171134113500,8.291113525390625,-0.3362884521484375,0.2754058837890625,0.8887786865234375
1761818171144040700,8.301040771484375,-0.3451080322265625,0.278167724609375,0.883270263671875
1761818171153967600,8.310967529296875,-0.35235595703125,0.275360107421875,0.890167236328125
1761818171163894500,8.32089453125,-0.3687744140625,0.280029296875,0.8913726806640625
1761818171173821700,8.33082177734375,-0.3620452880859375,0.2727203369140625,0.8900604248046875
1761818171183748600,8.34074853515625,-0.36663818359375,0.2711639404296875,0.8898773193359375
1761818171193675500,8.350675537109375,-0.3577728271484375,0.2732086181640625,0.8880767822265625
1761818171203602400,8.3606025390625,-0.3466339111328125,0.270355224609375,0.8881988525390625
1761818171213530600,8.370530517578125,-0.3458404541015625,0.271697998046875,0.893310546875
1761818171223457500,8.38045751953125,-0.34442138671875,0.27398681640625,0.89739990234375
1761818171233384700,8.390384765625,-0.3470611572265625,0.2734375,0.8897705078125
1761818171243311600,8.4003115234375,-0.3551177978515625,0.2690277099609375,0.8834228515625
1761818171253238800,8.41023876953125,-0.3568878173828125,0.2687225341796875,0.88385009765625
1761818171263165700,8.420165771484376,-0.360015869140625,0.2738494873046875,0.8857269287109375
1761818171273092900,8.4300927734375,-0.35546875,0.273834228515625,0.8902740478515625
1761818171283019500,8.44001953125,-0.3466033935546875,0.279693603515625,0.8887176513671875
1761818171292946700,8.44994677734375,-0.338623046875,0.27667236328125,0.8891754150390625
1761818171302873600,8.45987353515625,-0.3387451171875,0.2696685791015625,0.891754150390625
1761818171312801500,8.469801513671875,-0.345611572265625,0.2744903564453125,0.89208984375
1761818171322728700,8.479728759765624,-0.35150146484375,0.2792510986328125,0.8931732177734375
1761818171332655600,8.489655517578125,-0.3517608642578125,0.27044677734375,0.8923492431640625
1761818171342582800,8.499582763671874,-0.349029541015625,0.2709503173828125,0.88580322265625
1761818171352509700,8.509509765625,-0.352874755859375,0.274749755859375,0.886260986328125
1761818171362436600,8.5194365234375,-0.34765625,0.2716522216796875,0.89117431640625
1761818171372363500,8.529363525390625,-0.3522186279296875,0.2733917236328125,0.8933868408203125
1761818171382290700,8.539290771484374,-0.3501434326171875,0.272308349609375,0.8827362060546875
1761818171392217600,8.549217529296875,-0.33990478515625,0.26824951171875,0.8922119140625
1761818171402144800,8.559144775390624,-0.346282958984375,0.2787933349609375,0.8944244384765625
1761818171412072700,8.56907275390625,-0.3492279052734375,0.2801971435546875,0.891937255859375
1761818171421999600,8.57899951171875,-0.347412109375,0.2749786376953125,0.890380859375
1761818171431926800,8.5889267578125,-0.35784912109375,0.272705078125,0.8898162841796875
1761818171441853400,8.598853515625,-0.3675537109375,0.277008056640625,0.89044189453125
1761818171451780600,8.608780517578126,-0.367431640625,0.2794036865234375,0.8919219970703125
1761818171461707500,8.61870751953125,-0.3731689453125,0.281280517578125,0.893951416015625
1761818171471634700,8.628634765625,-0.3713226318359375,0.275970458984375,0.8919525146484375
1761818171481561600,8.6385615234375,-0.3362884521484375,0.2706146240234375,0.88641357421875
1761818171491488800,8.64848876953125,-0.3267669677734375,0.26611328125,0.875701904296875
1761818171501415700,8.658415771484375,-0.3310699462890625,0.2700347900390625,0.87567138671875
1761818171511343600,8.668343505859376,-0.353485107421875,0.2700653076171875,0.8635406494140625
1761818171521270800,8.678270751953125,-0.42401123046875,0.2376251220703125,0.8166351318359375
1761818171531197400,8.688197509765626,-0.5241546630859375,0.1312255859375,0.77630615234375
1761818171541124600,8.69812451171875,-0.4577484130859375,0.1577301025390625,0.768218994140625
1761818171551051500,8.708051513671874,-0.40899658203125,0.17364501953125,0.829833984375
1761818171560978700,8.717978759765625,-0.383087158203125,0.216064453125,0.8390045166015625
1761818171570905600,8.727905517578124,-0.345458984375,0.22833251953125,0.795989990234375
1761818171580832800,8.737832763671875,-0.33709716796875,0.2030792236328125,0.7880096435546875
1761818171590759400,8.747759521484374,-0.3490753173828125,0.1802825927734375,0.7637786865234375
1761818171600686600,8.7576865234375,-0.35223388671875,0.138427734375,0.7233123779296875
1761818171610613500,8.767613525390624,-0.3636627197265625,0.1065521240234375,0.6914825439453125
1761818171620541700,8.777541748046875,-0.393524169921875,0.086456298828125,0.665557861328125
1761818171630468600,8.787468505859374,-0.4038238525390625,0.0719757080078125,0.6265106201171875
1761818171640395500,8.7973955078125,-0.3674774169921875,0.0760498046875,0.628692626953125
1761818171650322700,8.80732275390625,-0.3345794677734375,0.1045074462890625,0.6128082275390625
1761818171660249600,8.81724951171875,-0.3587188720703125,0.166900634765625,0.6020050048828125
1761818171670176800,8.8271767578125,-0.3946533203125,0.2294769287109375,0.6071319580078125
1761818171680103400,8.837103515625,-0.45361328125,0.271942138671875,0.66180419921875
1761818171690030600,8.847030517578125,-0.519317626953125,0.2833099365234375,0.7470703125
1761818171699957500,8.85695751953125,-0.615081787109375,0.2694244384765625,0.8173980712890625
1761818171709884700,8.866884765625,-0.7345428466796875,0.3398590087890625,0.81488037109375
1761818171719812600,8.8768125,-0.745361328125,0.3817901611328125,0.7613677978515625
1761818171729739800,8.88673974609375,-0.717529296875,0.3478240966796875,0.74029541015625
1761818171739666700,8.896666748046876,-0.7465667724609375,0.3297576904296875,0.7545013427734375
1761818171749593900,8.90659375,-0.767669677734375,0.31207275390625,0.7965087890625
1761818171759520500,8.9165205078125,-0.7405548095703125,0.274261474609375,0.8529510498046875
1761818171769447700,8.92644775390625,-0.70867919921875,0.26470947265625,0.9059295654296875
1761818171779374600,8.93637451171875,-0.6744232177734375,0.3020477294921875,0.943023681640625
1761818171789301800,8.9463017578125,-0.5852813720703125,0.3480224609375,0.9039459228515625
1761818171799228700,8.956228759765626,-0.500396728515625,0.3640899658203125,0.8107757568359375
1761818171809155600,8.966155517578125,-0.46746826171875,0.3573455810546875,0.7505035400390625
1761818171819082800,8.976082763671876,-0.4724273681640625,0.3513031005859375,0.702972412109375
1761818171829010700,8.9860107421875,-0.4843292236328125,0.407470703125,0.626861572265625
1761818171838937600,8.9959375,-0.3134613037109375,0.4351806640625,0.498321533203125
1761818171848864500,9.005864501953125,-0.0854339599609375,0.404693603515625,0.4356536865234375
1761818171858791700,9.015791748046874,0.099853515625,0.3766326904296875,0.4717559814453125
1761818171868718600,9.025718505859375,0.2464599609375,0.359375,0.5389404296875
1761818171878645800,9.035645751953124,0.3712005615234375,0.3845672607421875,0.5767974853515625
1761818171888572700,9.04557275390625,0.4412994384765625,0.425445556640625,0.592010498046875
1761818171898499800,9.055499755859374,0.5130157470703125,0.4642486572265625,0.5998077392578125
1761818171908426500,9.065426513671875,0.644378662109375,0.485748291015625,0.5759735107421875
1761818171918353700,9.075353759765624,0.78106689453125,0.4697113037109375,0.5418243408203125
1761818171928281600,9.085281494140625,0.92645263671875,0.4089813232421875,0.5125579833984375
1761818171938208500,9.09520849609375,1.0673828125,0.3961181640625,0.46612548828125
1761818171948135700,9.1051357421875,1.1013641357421875,0.4871063232421875,0.3624267578125
1761818171958062600,9.1150625,1.088836669921875,0.6620635986328125,0.2407684326171875
1761818171967989800,9.12498974609375,1.1063232421875,0.8426666259765625,0.1259002685546875
1761818171977916700,9.134916748046875,1.0885009765625,0.9804534912109375,0.1133880615234375
1761818171987843800,9.14484375,0.99212646484375,1.1059417724609375,0.2210235595703125
1761818171997770500,9.1547705078125,0.894775390625,1.2394866943359375,0.294097900390625
1761818172007697700,9.16469775390625,0.7430572509765625,1.38507080078125,0.3533782958984375
1761818172017624600,9.17462451171875,0.5295867919921875,1.5486602783203125,0.461334228515625
1761818172027551700,9.1845517578125,0.7650909423828125,1.842254638671875,0.5968170166015625
1761818172037479700,9.194479736328125,-0.28570556640625,2.1034088134765625,2.3361053466796875
1761818172047406600,9.204406494140626,-5.469085693359375,1.589508056640625,6.603302001953125
1761818172057333800,9.214333740234375,-6.6277008056640625,3.1285858154296875,3.1490020751953125
1761818172067260700,9.2242607421875,-4.5789337158203125,2.138397216796875,0.1425933837890625
1761818172077187600,9.2341875,-1.9946441650390625,0.9654083251953125,0.0191802978515625
1761818172087114800,9.24411474609375,-1.5439300537109375,0.522857666015625,0.3493499755859375
1761818172097042000,9.2540419921875,-1.0886993408203125,0.874114990234375,0.81744384765625
1761818172106968800,9.26396875,0.2725067138671875,0.6981048583984375,0.8685302734375
1761818172116896000,9.27389599609375,0.9657440185546875,0.547271728515625,0.621673583984375
1761818172126823000,9.283822998046874,1.0406494140625,0.5683135986328125,0.377899169921875
1761818172136750000,9.29375,0.667388916015625,0.7742156982421875,0.57989501953125
1761818172146678000,9.303677978515625,0.07489013671875,0.7916412353515625,0.839202880859375
1761818172156605000,9.31360498046875,-0.2889251708984375,0.683624267578125,0.7407073974609375
1761818172166532000,9.323531982421875,-0.477783203125,0.672882080078125,0.698822021484375
1761818172176458800,9.333458740234375,-0.5365142822265625,0.702972412109375,0.6450958251953125
1761818172186386000,9.343385986328125,-0.491119384765625,0.7168426513671875,0.60504150390625
1761818172196312800,9.353312744140625,-0.3489227294921875,0.7220001220703125,0.637939453125
1761818172206240000,9.363239990234375,-0.25933837890625,0.699920654296875,0.6396026611328125
1761818172216167000,9.3731669921875,-0.2308349609375,0.68017578125,0.6170501708984375
1761818172226094000,9.383093994140625,-0.2053985595703125,0.7085418701171875,0.6270599365234375
1761818172236021000,9.39302099609375,-0.217193603515625,0.7342681884765625,0.6456451416015625
1761818172245948000,9.402947998046875,-0.23394775390625,0.735443115234375,0.649017333984375
1761818172255875800,9.412875732421876,-0.2200469970703125,0.7310943603515625,0.6461181640625
1761818172265802800,9.422802734375,-0.1937408447265625,0.7017974853515625,0.6211395263671875
1761818172275730000,9.43272998046875,-0.162994384765625,0.6740875244140625,0.5827789306640625
1761818172285656800,9.44265673828125,-0.193634033203125,0.67352294921875,0.60345458984375
1761818172295584000,9.452583984375,-0.23516845703125,0.6915283203125,0.6362152099609375
1761818172305511000,9.462510986328125,-0.2593536376953125,0.716827392578125,0.631866455078125
1761818172315438000,9.47243798828125,-0.290283203125,0.721221923828125,0.629302978515625
1761818172325364700,9.48236474609375,-0.30242919921875,0.720489501953125,0.64239501953125
1761818172335292000,9.4922919921875,-0.3001556396484375,0.7084808349609375,0.6603851318359375
1761818172345218800,9.50221875,-0.2608795166015625,0.6902313232421875,0.648651123046875
1761818172355146000,9.51214599609375,-0.2524261474609375,0.699249267578125,0.6301422119140625
1761818172365074000,9.522073974609375,-0.26318359375,0.712982177734375,0.6359405517578125
1761818172375000800,9.532000732421874,-0.2587127685546875,0.71240234375,0.653076171875
1761818172384928000,9.541927978515625,-0.2712554931640625,0.705413818359375,0.6562042236328125
1761818172394855000,9.55185498046875,-0.2781829833984375,0.7055816650390625,0.64599609375
1761818172404781800,9.56178173828125,-0.2721405029296875,0.712493896484375,0.6380767822265625
1761818172414708700,9.571708740234374,-0.266937255859375,0.71160888671875,0.631805419921875
1761818172424636000,9.581635986328125,-0.262176513671875,0.7050933837890625,0.642974853515625
1761818172434562800,9.591562744140624,-0.269622802734375,0.7103424072265625,0.6490936279296875
1761818172444490000,9.601489990234375,-0.276092529296875,0.7126312255859375,0.64459228515625
1761818172454417000,9.6114169921875,-0.279083251953125,0.720245361328125,0.6451568603515625
1761818172464344000,9.621343994140625,-0.283477783203125,0.72552490234375,0.6541748046875
1761818172474270700,9.631270751953124,-0.2744903564453125,0.7148590087890625,0.6578369140625
1761818172484199000,9.641198974609376,-0.249420166015625,0.7028961181640625,0.645263671875
1761818172494125800,9.651125732421875,-0.2584381103515625,0.7017059326171875,0.6385498046875
1761818172504053000,9.661052978515626,-0.2601470947265625,0.713348388671875,0.6231231689453125
1761818172513980000,9.67097998046875,-0.2637786865234375,0.7258453369140625,0.6292572021484375
1761818172523907000,9.680906982421876,-0.275421142578125,0.7124176025390625,0.6321258544921875
1761818172533834000,9.690833984375,-0.2633056640625,0.7049560546875,0.627899169921875
1761818172543761000,9.700760986328126,-0.2600250244140625,0.70928955078125,0.633209228515625
1761818172553687800,9.710687744140625,-0.2548370361328125,0.7100982666015625,0.63592529296875
1761818172563614700,9.72061474609375,-0.2556915283203125,0.7106781005859375,0.6362457275390625
1761818172573542000,9.7305419921875,-0.2635040283203125,0.7121429443359375,0.641204833984375
1761818172583468800,9.74046875,-0.2655029296875,0.713134765625,0.6402435302734375
1761818172593397000,9.75039697265625,-0.26788330078125,0.7197418212890625,0.631378173828125
1761818172603324000,9.760323974609374,-0.270172119140625,0.716949462890625,0.6336669921875
1761818172613251000,9.7702509765625,-0.2668609619140625,0.7103424072265625,0.6328887939453125
1761818172623178000,9.780177978515624,-0.2580108642578125,0.703155517578125,0.627655029296875
1761818172633105200,9.790105224609375,-0.2580108642578125,0.7063446044921875,0.627593994140625
1761818172643031800,9.80003173828125,-0.2685699462890625,0.7111968994140625,0.63494873046875
1761818172652959000,9.809958984375,-0.274383544921875,0.7101898193359375,0.6368408203125
1761818172662886000,9.819885986328124,-0.2758331298828125,0.706939697265625,0.6347198486328125
1761818172672813000,9.82981298828125,-0.312164306640625,0.6401214599609375,0.622161865234375
1761818172682740000,9.839739990234374,-0.296234130859375,0.6405487060546875,0.60992431640625
1761818172692667000,9.8496669921875,-0.2567291259765625,0.7161865234375,0.6454620361328125
1761818172702595000,9.859594970703125,-0.2746429443359375,0.7283172607421875,0.658843994140625
1761818172712522000,9.86952197265625,-0.2441864013671875,0.7464447021484375,0.65435791015625
1761818172722449000,9.879448974609375,-0.23712158203125,0.7676849365234375,0.656219482421875
1761818172732375800,9.889375732421875,-0.2559967041015625,0.763092041015625,0.65966796875
1761818172742303000,9.899302978515625,-0.2886962890625,0.7110595703125,0.64208984375
1761818172752230000,9.90922998046875,-0.2707977294921875,0.6977996826171875,0.634674072265625
1761818172762157000,9.919156982421875,-0.2704620361328125,0.7080535888671875,0.6371612548828125
1761818172772084000,9.929083984375,-0.276214599609375,0.71221923828125,0.6398162841796875
1761818172782011100,9.93901123046875,-0.2646484375,0.7139739990234375,0.64117431640625
1761818172791937800,9.948937744140625,-0.256378173828125,0.7156524658203125,0.6439971923828125
1761818172801865000,9.958864990234375,-0.2724761962890625,0.71844482421875,0.6501922607421875
1761818172811792000,9.9687919921875,-0.292510986328125,0.7048187255859375,0.6502838134765625
1761818172821719000,9.978718994140625,-0.2874298095703125,0.7008056640625,0.6224517822265625
1761818172831647000,9.98864697265625,-0.363067626953125,0.591522216796875,0.59832763671875
1761818172841574000,9.998573974609375,-0.3607330322265625,0.5709075927734375,0.5641937255859375
1761818172851501000,10.0085009765625,-0.3195648193359375,0.6131439208984375,0.5933074951171875
1761818172861428000,10.018427978515625,-0.3157196044921875,0.6408538818359375,0.615081787109375
1761818172871355000,10.02835498046875,-0.29620361328125,0.6890869140625,0.6324615478515625
1761818172881281800,10.03828173828125,-0.275054931640625,0.722900390625,0.6497344970703125
1761818172891209000,10.048208984375,-0.2644500732421875,0.7441864013671875,0.6676177978515625
1761818172901136000,10.058135986328125,-0.2604217529296875,0.7548675537109375,0.67462158203125
1761818172911063000,10.06806298828125,-0.280517578125,0.7689666748046875,0.6752471923828125
1761818172920990000,10.077989990234375,-0.2852783203125,0.786468505859375,0.68267822265625
1761818172930917000,10.087917236328124,-0.3004913330078125,0.802215576171875,0.68621826171875
1761818172940845000,10.097844970703125,-0.3415069580078125,0.80316162109375,0.67510986328125
1761818172950771700,10.107771728515624,-0.44097900390625,0.728240966796875,0.66143798828125
1761818172960699000,10.117698974609375,-0.511383056640625,0.7070465087890625,0.6638641357421875
1761818172970625800,10.127625732421874,-0.53692626953125,0.6925811767578125,0.686309814453125
1761818172980553000,10.137552978515625,-0.6228485107421875,0.5862579345703125,0.7625579833984375
1761818172990480000,10.14747998046875,-0.72857666015625,0.547760009765625,0.9043426513671875
1761818173000407000,10.157406982421875,-0.7633056640625,0.5945892333984375,1.0666961669921875
1761818173010334000,10.167333984375,-0.7477264404296875,0.6846923828125,1.176483154296875
1761818173020260900,10.1772607421875,-0.7347564697265625,0.81658935546875,1.151641845703125
1761818173030187800,10.187187744140624,-0.715972900390625,0.97021484375,1.084869384765625
1761818173040115000,10.197114990234375,-0.6992950439453125,1.131256103515625,1.0292510986328125
1761818173050041900,10.207041748046874,-0.669403076171875,1.2985992431640625,0.993621826171875
1761818173059969800,10.2169697265625,-0.5443572998046875,1.3761444091796875,0.9606475830078125
1761818173069897000,10.22689697265625,-0.423248291015625,1.34674072265625,0.9311981201171875
1761818173079824000,10.236823974609376,-0.4149017333984375,1.2270965576171875,0.88372802734375
1761818173089751000,10.2467509765625,-0.48590087890625,1.0581207275390625,0.8328399658203125
1761818173099678000,10.256677978515626,-0.5504913330078125,0.854461669921875,0.7918701171875
1761818173109605000,10.266605224609375,-0.66217041015625,0.8397216796875,0.8134613037109375
1761818173119532000,10.276531982421876,-0.7584381103515625,0.815704345703125,0.872100830078125
1761818173129459000,10.286458984375,-0.8425140380859375,0.8640899658203125,0.99114990234375
1761818173139385900,10.2963857421875,-0.8807830810546875,0.854736328125,1.067626953125
1761818173149313000,10.30631298828125,-0.8535308837890625,0.798095703125,1.09063720703125
1761818173159240000,10.316239990234376,-0.8249053955078125,0.77764892578125,1.0522918701171875
1761818173169167000,10.3261669921875,-0.760498046875,0.7471160888671875,0.9267120361328125
1761818173179094000,10.336093994140626,-0.694793701171875,0.698028564453125,0.8038482666015625
1761818173189022000,10.34602197265625,-0.6384124755859375,0.6362762451171875,0.693389892578125
1761818173198949000,10.35594921875,-0.6123046875,0.568206787109375,0.6097564697265625
1761818173208875800,10.365875732421875,-0.598358154296875,0.50958251953125,0.588836669921875
1761818173218803000,10.375802978515624,-0.5876007080078125,0.460540771484375,0.614990234375
1761818173228729900,10.385729736328125,-0.5653533935546875,0.4270782470703125,0.6656646728515625
1761818173238657000,10.395656982421874,-0.5330047607421875,0.394805908203125,0.740203857421875
1761818173248584000,10.405583984375,-0.46649169921875,0.3552703857421875,0.8194427490234375
1761818173258511000,10.415510986328124,-0.3658905029296875,0.30169677734375,0.88134765625
1761818173268438000,10.42543798828125,-0.2587127685546875,0.2476806640625,0.9215850830078125
1761818173278365000,10.435364990234374,-0.1688690185546875,0.2055511474609375,0.925872802734375
1761818173288291800,10.445291748046875,-0.0669708251953125,0.1885986328125,0.906402587890625
1761818173298219000,10.455218994140624,0.0135040283203125,0.201385498046875,0.8529052734375
1761818173308147000,10.46514697265625,0.077911376953125,0.218994140625,0.7653045654296875
1761818173318074000,10.47507421875,0.1323699951171875,0.2392425537109375,0.6606903076171875
1761818173328001000,10.4850009765625,0.1903839111328125,0.2519989013671875,0.568695068359375
1761818173337928000,10.494927978515625,0.2650604248046875,0.211944580078125,0.5229949951171875
1761818173347855000,10.504855224609376,0.3146209716796875,0.12811279296875,0.549896240234375
1761818173357782000,10.514781982421875,0.370880126953125,0.0301971435546875,0.6404266357421875
1761818173367709000,10.524708984375,0.4266815185546875,-0.0446929931640625,0.7144927978515625
1761818173377635800,10.5346357421875,0.4389495849609375,-0.0948638916015625,0.7568511962890625
1761818173387563000,10.54456298828125,0.4506072998046875,-0.1297607421875,0.7796783447265625
1761818173397490000,10.554489990234375,0.489044189453125,-0.139312744140625,0.7539825439453125
1761818173407417000,10.5644169921875,0.532501220703125,-0.1589813232421875,0.7142791748046875
1761818173417344000,10.574343994140625,0.609344482421875,-0.1903839111328125,0.7080078125
1761818173427271000,10.58427099609375,0.78790283203125,-0.21185302734375,0.6882781982421875
1761818173437197800,10.59419775390625,1.020904541015625,-0.2034149169921875,0.6745147705078125
1761818173447126000,10.6041259765625,1.209869384765625,-0.1132049560546875,0.6395111083984375
1761818173457053000,10.614052978515625,1.444732666015625,-0.0066680908203125,0.49407958984375
1761818173466980000,10.62397998046875,1.7014312744140625,0.049072265625,0.2993621826171875
1761818173476907000,10.633906982421875,1.883880615234375,0.0462188720703125,0.128082275390625
1761818173486834200,10.643834228515624,1.969146728515625,-0.0031280517578125,-0.0151824951171875
1761818173496761000,10.653760986328125,1.887786865234375,-0.0155487060546875,-0.1123046875
1761818173506688000,10.66368798828125,1.58642578125,0.1365966796875,-0.1976165771484375
1761818173516615000,10.673614990234375,1.1090087890625,0.317779541015625,-0.304840087890625
1761818173526541800,10.683541748046874,0.2100982666015625,0.1664581298828125,0.186065673828125
1761818173536469000,10.693468994140625,-1.70489501953125,0.609344482421875,0.9636688232421875
1761818173546396000,10.70339599609375,-6.0557861328125,1.24188232421875,1.8573150634765625
1761818173556323000,10.713322998046875,-7.790313720703125,1.07733154296875,2.7938690185546875
1761818173566250000,10.72325,-5.1866912841796875,0.5780792236328125,1.610504150390625
1761818173576178200,10.73317822265625,-2.8680572509765625,-0.3487396240234375,-0.143463134765625
1761818173586105000,10.74310498046875,-2.8525543212890625,-0.68634033203125,-0.3921356201171875
1761818173596032000,10.753031982421875,-2.417510986328125,-0.3275299072265625,-0.17877197265625
1761818173605959000,10.762958984375,-1.36163330078125,-0.1884307861328125,0.230499267578125
1761818173615886000,10.772885986328125,-0.4040069580078125,-0.2353515625,0.5173797607421875
1761818173625813000,10.78281298828125,0.5089569091796875,-0.27166748046875,0.6259307861328125
1761818173635740200,10.792740234375,1.17755126953125,-0.198272705078125,0.907806396484375
1761818173645667000,10.8026669921875,1.4153289794921875,-0.079010009765625,1.0423126220703125
1761818173655594000,10.812593994140625,1.3546905517578125,-0.031951904296875,1.0054931640625
1761818173665521000,10.82252099609375,0.9829254150390625,-0.03546142578125,1.01708984375
1761818173675448000,10.832447998046876,0.5019073486328125,-0.0755462646484375,1.0453948974609375
1761818173685375000,10.842375,0.077911376953125,-0.1663665771484375,1.11181640625
1761818173695302000,10.852302001953126,-0.361846923828125,-0.2540130615234375,1.188720703125
1761818173705230000,10.86222998046875,-0.8345794677734375,-0.216156005859375,1.151123046875
1761818173715157000,10.872156982421876,-1.1924591064453125,-0.0292510986328125,0.9622039794921875
1761818173725084200,10.882084228515625,-1.2813720703125,0.0543975830078125,0.9202423095703125
1761818173735011000,10.892010986328126,-1.1229248046875,0.069061279296875,0.9679718017578125
1761818173744938000,10.90193798828125,-0.7891082763671875,0.06317138671875,0.9673309326171875
1761818173754865000,10.911864990234376,-0.5482330322265625,-0.0047760009765625,0.9101104736328125
1761818173764792000,10.9217919921875,-0.530029296875,-0.0511016845703125,0.897979736328125
1761818173774719000,10.931718994140626,-0.4729156494140625,-0.0737457275390625,0.91900634765625
1761818173784646100,10.941646240234375,-0.3309478759765625,-0.0893402099609375,0.924346923828125
1761818173794573000,10.951572998046874,-0.2396240234375,-0.09344482421875,0.9344329833984375
1761818173804500200,10.961500244140625,-0.26080322265625,-0.10906982421875,0.9327850341796875
1761818173814427000,10.971427001953124,-0.36981201171875,-0.10467529296875,0.900665283203125
1761818173824354000,10.98135400390625,-0.457855224609375,-0.104156494140625,0.8419952392578125
1761818173834281000,10.991281005859374,-0.4810943603515625,-0.1159515380859375,0.79998779296875
1761818173844209000,11.001208984375,-0.519134521484375,-0.129150390625,0.7978973388671875
1761818173854136000,11.011135986328124,-0.5279693603515625,-0.131317138671875,0.8278350830078125
1761818173864063000,11.02106298828125,-0.45770263671875,-0.1057586669921875,0.86761474609375
1761818173873990100,11.030990234375,-0.412139892578125,-0.085418701171875,0.901458740234375
1761818173883917000,11.0409169921875,-0.4018707275390625,-0.073455810546875,0.9112548828125
1761818173893844000,11.050843994140624,-0.4100799560546875,-0.0676727294921875,0.89910888671875
1761818173903771000,11.06077099609375,-0.4530181884765625,-0.0704193115234375,0.895599365234375
1761818173913698000,11.070697998046874,-0.5009918212890625,-0.0860137939453125,0.906341552734375
1761818173923625000,11.080625,-0.5023040771484375,-0.0955352783203125,0.9149627685546875
1761818173933552000,11.09055224609375,-0.49713134765625,-0.09564208984375,0.91119384765625
1761818173943479000,11.10047900390625,-0.53033447265625,-0.0933990478515625,0.887786865234375
1761818173953406200,11.11040625,-0.5516204833984375,-0.0848388671875,0.89837646484375
1761818173963332900,11.120332763671875,-0.612518310546875,-0.079315185546875,0.9223175048828125
1761818173973260000,11.130260009765625,-0.7011871337890625,-0.0991058349609375,0.948486328125
1761818173983188000,11.14018798828125,-0.78326416015625,-0.1001739501953125,0.978271484375
1761818173993115000,11.150114990234375,-0.841766357421875,-0.0859222412109375,0.986602783203125
1761818174003042000,11.1600419921875,-0.9646453857421875,-0.0408477783203125,0.9845733642578125
1761818174012969000,11.169968994140625,-1.087493896484375,0.005157470703125,0.9467010498046875
1761818174022896000,11.179896240234376,-1.1587066650390625,0.056121826171875,0.9129486083984375
1761818174032823000,11.189822998046875,-1.202606201171875,0.09130859375,0.9298095703125
1761818174042750200,11.199750244140626,-1.1607666015625,0.1369781494140625,0.9295806884765625
1761818174052676900,11.2096767578125,-1.0463714599609375,0.2447509765625,0.8384246826171875
1761818174062604000,11.21960400390625,-0.94342041015625,0.3076629638671875,0.7208099365234375
1761818174072531000,11.229531005859375,-0.8100433349609375,0.27923583984375,0.6542510986328125
1761818174082457600,11.23945751953125,-0.7053070068359375,0.20733642578125,0.65045166015625
1761818174092384300,11.24938427734375,-0.5827789306640625,0.11614990234375,0.6940460205078125
1761818174102311400,11.2593115234375,-0.4180908203125,0.018463134765625,0.7334442138671875
1761818174112238300,11.26923828125,-0.2941741943359375,-0.0803375244140625,0.8312835693359375
1761818174122166300,11.279166259765624,-0.107086181640625,-0.1067047119140625,0.9221343994140625
1761818174132093400,11.289093505859375,0.14739990234375,-0.1002197265625,0.9340667724609375
1761818174142020400,11.299020263671874,0.350677490234375,-0.09844970703125,0.911407470703125
1761818174151947500,11.308947509765625,0.593994140625,-0.1322784423828125,0.85687255859375
1761818174161874400,11.31887451171875,0.8759613037109375,-0.213623046875,0.790069580078125
1761818174171801300,11.32880126953125,1.1158447265625,-0.3517608642578125,0.7598724365234375
1761818174181728300,11.338728271484374,1.3268280029296875,-0.47320556640625,0.7338409423828125
1761818174191655400,11.348655517578125,1.5224456787109375,-0.5040130615234375,0.7369384765625
1761818174201582300,11.358582275390624,1.6434173583984375,-0.457000732421875,0.7501373291015625
1761818174211509500,11.368509521484375,1.8094329833984375,-0.383575439453125,0.6840362548828125
1761818174221436400,11.3784365234375,1.9166717529296875,-0.2701873779296875,0.5800323486328125
1761818174231363600,11.388363525390625,1.975067138671875,-0.138458251953125,0.38690185546875
1761818174241290200,11.398290283203124,2.037750244140625,-0.0141143798828125,0.1153106689453125
1761818174251217400,11.408217529296875,2.0107269287109375,0.0605621337890625,-0.1473236083984375
1761818174261144300,11.418144287109374,1.9652252197265625,0.1082000732421875,-0.2774810791015625
1761818174271072500,11.428072509765625,1.842681884765625,0.2045135498046875,-0.1598052978515625
1761818174280999400,11.43799951171875,1.59759521484375,0.290802001953125,0.0268402099609375
1761818174290926300,11.44792626953125,1.5959014892578125,-0.042022705078125,0.2671661376953125
1761818174300853500,11.457853515625,1.716583251953125,-0.4169158935546875,0.588043212890625
1761818174310780400,11.467780517578126,-0.115478515625,-0.3372650146484375,1.3134613037109375
1761818174320707300,11.477707275390625,-3.6277618408203125,-0.57623291015625,2.2459869384765625
1761818174330634200,11.48763427734375,-7.5024261474609375,-0.5848541259765625,2.25701904296875
1761818174340561400,11.4975615234375,-7.1433563232421875,-0.6827850341796875,0.61083984375
1761818174350488300,11.50748828125,-2.8831939697265625,-1.42242431640625,0.2710113525390625
1761818174360415500,11.51741552734375,-0.4492034912109375,-1.2404022216796875,-0.053314208984375
1761818174370342400,11.52734228515625,-0.6324310302734375,-0.6805419921875,-0.3217926025390625
1761818174380269600,11.53726953125,-0.7949066162109375,-0.60272216796875,0.0779876708984375
1761818174390196200,11.5471962890625,-0.26904296875,-0.788665771484375,0.7701263427734375
1761818174400123400,11.557123291015625,0.603790283203125,-0.7937164306640625,0.979766845703125
1761818174410050300,11.56705029296875,1.0174407958984375,-0.5699462890625,0.8636627197265625
1761818174419978500,11.576978515625,0.967803955078125,-0.486541748046875,0.8172760009765625
1761818174429905400,11.586905517578124,0.7246856689453125,-0.5529327392578125,0.80572509765625
1761818174439832600,11.59683251953125,0.326080322265625,-0.6183624267578125,0.678253173828125
1761818174449759500,11.606759521484374,-0.09637451171875,-0.7097015380859375,0.558319091796875
1761818174459686400,11.616686279296875,-0.49627685546875,-0.7799072265625,0.4905242919921875
1761818174469613300,11.62661328125,-0.7473602294921875,-0.821929931640625,0.4397125244140625
1761818174479540200,11.636540283203125,-0.7740325927734375,-0.84844970703125,0.398040771484375
1761818174489467400,11.64646728515625,-0.6457672119140625,-0.844573974609375,0.3721160888671875
1761818174499394300,11.656394287109375,-0.5032196044921875,-0.7236480712890625,0.323944091796875
1761818174509321500,11.666321533203124,-0.3883056640625,-0.5662841796875,0.3013153076171875
1761818174519248400,11.676248291015625,-0.3036956787109375,-0.49462890625,0.316925048828125
1761818174529175600,11.686175537109374,-0.25848388671875,-0.504974365234375,0.358245849609375
1761818174539102200,11.696102294921875,-0.1632080078125,-0.51275634765625,0.3920135498046875
1761818174549029400,11.706029296875,-0.0468902587890625,-0.5330963134765625,0.447021484375
1761818174558956300,11.715956298828125,-0.013580322265625,-0.5789947509765625,0.5561065673828125
1761818174568884500,11.725884521484375,0.0244903564453125,-0.503448486328125,0.612060546875
1761818174578811400,11.735811279296875,0.012054443359375,-0.5032958984375,0.6197357177734375
1761818174588738600,11.745738525390625,-0.084503173828125,-0.5779876708984375,0.5990753173828125
1761818174598665500,11.75566552734375,-0.16497802734375,-0.6737518310546875,0.5766448974609375
1761818174608592400,11.76559228515625,-0.30731201171875,-0.734619140625,0.5263214111328125
1761818174618519300,11.775519287109375,-0.4332733154296875,-0.7852935791015625,0.4911651611328125
1761818174628446500,11.785446533203125,-0.429840087890625,-0.879730224609375,0.570220947265625
1761818174638373400,11.795373291015625,-0.3359832763671875,-0.86871337890625,0.521453857421875
1761818174648300300,11.80530029296875,-0.2223052978515625,-0.7336883544921875,0.342041015625
1761818174658227500,11.8152275390625,-0.172332763671875,-0.6733856201171875,0.2030792236328125
1761818174668154400,11.825154296875,-0.17169189453125,-0.7092437744140625,0.05523681640625
1761818174678081500,11.83508154296875,-0.12933349609375,-0.817413330078125,-0.0909271240234375
1761818174688008200,11.84500830078125,-0.00897216796875,-0.9428863525390625,-0.0597991943359375
1761818174697935400,11.854935302734376,0.09930419921875,-1.018402099609375,-0.005645751953125
1761818174707862300,11.8648623046875,0.1666259765625,-1.05694580078125,-0.0348052978515625
1761818174717789400,11.87478955078125,0.0987701416015625,-1.1428985595703125,-0.2023162841796875
1761818174727717400,11.88471728515625,-0.079864501953125,-1.2374420166015625,-0.352081298828125
1761818174737644500,11.89464453125,-0.3700408935546875,-1.4561309814453125,-0.6212310791015625
1761818174747571500,11.904571533203125,-0.4949798583984375,-1.7910308837890625,-0.88446044921875
1761818174757498600,11.91449853515625,-0.3914947509765625,-1.73919677734375,-0.7659912109375
1761818174767425500,11.924425537109375,-0.3405914306640625,-1.3891448974609375,-0.4378662109375
1761818174777352400,11.9343525390625,-0.24761962890625,-1.1481781005859375,-0.25323486328125
1761818174787279400,11.944279296875,-0.134246826171875,-1.100738525390625,-0.15325927734375
1761818174797206500,11.95420654296875,-0.065673828125,-1.1450347900390625,-0.0485382080078125
1761818174807133400,11.964133544921875,0.0229644775390625,-1.1821746826171875,0.029510498046875
1761818174817060400,11.974060302734374,-0.0419769287109375,-1.144287109375,0.0902099609375
1761818174826987500,11.983987548828125,-0.2303619384765625,-1.0535125732421875,0.1277923583984375
1761818174836914400,11.99391455078125,-0.39031982421875,-0.97918701171875,0.1621856689453125
1761818174846841300,12.00384130859375,-0.3647613525390625,-0.89044189453125,0.1727752685546875
1761818174856768300,12.013768310546874,-0.2642974853515625,-0.7901611328125,0.165252685546875
1761818174866695400,12.0236953125,-0.2274322509765625,-0.64178466796875,0.179443359375
1761818174876622300,12.033622314453124,-0.156494140625,-0.4777374267578125,0.1597900390625
1761818174886550500,12.043550537109375,-0.06134033203125,-0.3745574951171875,-0.0241851806640625
1761818174896477400,12.0534775390625,0.0809173583984375,-0.3582305908203125,-0.3866424560546875
1761818174906404600,12.063404541015625,0.1475372314453125,-0.3824462890625,-0.6861114501953125
1761818174916331500,12.07333154296875,0.0201568603515625,-0.3871002197265625,-0.7122039794921875
1761818174926258400,12.083258544921875,-0.187835693359375,-0.4170379638671875,-0.9123382568359375
1761818174936185300,12.093185302734375,-0.1631927490234375,-0.5953826904296875,-0.81011962890625
1761818174946112500,12.103112548828125,-0.085479736328125,-0.8168487548828125,-0.2719573974609375
1761818174956039400,12.113039306640625,-0.273223876953125,-0.865081787109375,-0.1951904296875
1761818174965966300,12.12296630859375,-0.296661376953125,-0.8519744873046875,-0.19805908203125
1761818174975893500,12.1328935546875,-0.095794677734375,-0.7829132080078125,-0.2589874267578125
1761818174985820400,12.1428203125,0.0001220703125,-0.717529296875,-0.3851470947265625
1761818174995747300,12.152747314453125,-0.1168060302734375,-0.70733642578125,-0.361175537109375
1761818175005674200,12.16267431640625,-0.1908721923828125,-0.7264556884765625,-0.3031005859375
1761818175015601400,12.172601318359375,-0.1873779296875,-0.6780548095703125,-0.3616943359375
1761818175025528300,12.1825283203125,-0.1779937744140625,-0.59649658203125,-0.51220703125
1761818175035455500,12.19245556640625,-0.021484375,-0.5467987060546875,-0.623626708984375
1761818175045383400,12.202383544921876,0.0145721435546875,-0.5423431396484375,-0.5298309326171875
1761818175055310600,12.212310546875,0.0106048583984375,-0.52001953125,-0.3216094970703125
1761818175065237500,12.222237548828126,-0.23358154296875,-0.5196533203125,-0.1617279052734375
1761818175075164400,12.232164306640625,-0.52392578125,-0.6524810791015625,-0.26446533203125
1761818175085091600,12.242091552734376,-0.464324951171875,-0.818634033203125,-0.586883544921875
1761818175095018800,12.252018798828125,-0.5533447265625,-0.9198150634765625,-0.8354034423828125
1761818175104945700,12.261945556640624,-0.4019622802734375,-0.991241455078125,-0.9579315185546875
1761818175114872600,12.27187255859375,-0.0838775634765625,-0.99444580078125,-1.1994171142578125
1761818175124799500,12.281799560546874,-0.2081451416015625,-0.8804473876953125,-1.151153564453125
1761818175134726400,12.291726318359375,-0.29852294921875,-0.7623291015625,-1.1390838623046875
1761818175144653600,12.301653564453124,-0.393310546875,-0.63201904296875,-1.3474578857421875
1761818175154580500,12.31158056640625,-0.5281219482421875,-0.564727783203125,-1.534576416015625
1761818175164507600,12.321507568359374,-0.4711151123046875,-0.5345916748046875,-1.57818603515625
1761818175174434600,12.3314345703125,-0.2931976318359375,-0.516937255859375,-1.556243896484375
1761818175184361500,12.341361572265624,-0.323028564453125,-0.449920654296875,-1.6410980224609375
1761818175194288400,12.351288330078125,-0.510650634765625,-0.378814697265625,-1.8079833984375
1761818175204215600,12.361215576171874,-0.6292724609375,-0.348388671875,-1.9145050048828125
1761818175214143500,12.3711435546875,-0.6186065673828125,-0.3539276123046875,-1.7159881591796875
1761818175224070700,12.381070556640625,-0.5414581298828125,-0.2410736083984375,-1.384796142578125
1761818175233997600,12.39099755859375,-0.60162353515625,-0.1058807373046875,-1.29412841796875
1761818175243924700,12.4009248046875,-0.40399169921875,-0.084991455078125,-1.218536376953125
1761818175253851600,12.4108515625,-0.237579345703125,-0.0303497314453125,-1.19244384765625
1761818175263778600,12.420778564453125,-0.162628173828125,0.0103912353515625,-1.1187591552734375
1761818175273705500,12.43070556640625,-0.1323699951171875,0.03326416015625,-1.0664215087890625
1761818175283632600,12.440632568359375,-0.130523681640625,0.0613555908203125,-1.01708984375
1761818175293559600,12.4505595703125,-0.114349365234375,0.119384765625,-1.0152130126953125
1761818175303486500,12.460486572265625,-0.095947265625,0.1429290771484375,-1.0387115478515625
1761818175313413600,12.47041357421875,-0.1325836181640625,0.0790557861328125,-0.9220123291015625
1761818175323340500,12.480340576171875,-0.15423583984375,0.1034088134765625,-0.87347412109375
1761818175333267500,12.490267333984375,-0.1336669921875,0.1440887451171875,-0.97247314453125
1761818175343194400,12.5001943359375,-0.1304168701171875,0.1399688720703125,-1.00054931640625
1761818175353121500,12.51012158203125,-0.1543731689453125,0.1367340087890625,-0.9499969482421875
1761818175363048400,12.52004833984375,-0.176727294921875,0.1387481689453125,-0.90863037109375
1761818175372975600,12.5299755859375,-0.1809844970703125,0.135772705078125,-0.93328857421875
1761818175382902500,12.539902587890625,-0.1607513427734375,0.1283111572265625,-1.059783935546875
1761818175392830700,12.549830810546876,-0.145294189453125,0.104248046875,-1.2015533447265625
1761818175402757600,12.559757568359375,-0.2208099365234375,0.0876617431640625,-1.22283935546875
1761818175412684500,12.5696845703125,-0.3199920654296875,0.09796142578125,-1.1973876953125
1761818175422611500,12.579611572265625,-0.420166015625,0.09716796875,-1.093536376953125
1761818175432538600,12.58953857421875,-0.456329345703125,0.09124755859375,-1.033843994140625
1761818175442465500,12.599465576171875,-0.1698150634765625,0.1277008056640625,-1.149261474609375
1761818175452392700,12.609392822265624,0.01776123046875,0.1267547607421875,-1.125244140625
1761818175462319600,12.619319580078125,-0.0041351318359375,0.126007080078125,-1.030426025390625
1761818175472246500,12.62924658203125,-0.0274810791015625,0.1278533935546875,-0.9604339599609375
1761818175482173400,12.63917333984375,-0.0494842529296875,0.12164306640625,-0.8717193603515625
1761818175492100400,12.649100341796874,-0.0961761474609375,0.104949951171875,-0.7845916748046875
1761818175502027500,12.659027587890625,-0.239349365234375,0.0410614013671875,-0.7191619873046875
1761818175511954400,12.668954345703124,-0.4890289306640625,-0.0661468505859375,-0.6457977294921875
1761818175521881600,12.678881591796875,-0.477081298828125,-0.115203857421875,-0.591278076171875
1761818175531808500,12.68880859375,-0.434722900390625,-0.11468505859375,-0.4938507080078125
1761818175541735700,12.698735595703125,-0.625274658203125,-0.0687103271484375,-0.4283447265625
1761818175551662300,12.708662353515624,-0.7796478271484375,-0.0204315185546875,-0.3090972900390625
1761818175561589500,12.718589599609375,-0.6584014892578125,0.0031890869140625,-0.11962890625
1761818175571516400,12.728516357421874,-0.799224853515625,-0.0107879638671875,-0.0611419677734375
1761818175581444600,12.738444580078125,-0.87591552734375,-0.0185089111328125,-0.0802459716796875
1761818175591371500,12.74837158203125,-0.8453369140625,0.0056610107421875,-0.1220550537109375
1761818175601298700,12.758298583984375,-0.840911865234375,0.0315093994140625,-0.196075439453125
1761818175611225600,12.7682255859375,-1.087493896484375,-0.0114898681640625,-0.330413818359375
1761818175621152500,12.778152587890625,-1.3117828369140625,-0.0179290771484375,-0.46051025390625
1761818175631079400,12.788079345703125,-1.36358642578125,0.1065673828125,-0.4544830322265625
1761818175641006600,12.798006591796875,-1.283721923828125,0.172943115234375,-0.4237060546875
1761818175650933500,12.80793359375,-1.44488525390625,0.1171875,-0.4214630126953125
1761818175660860400,12.8178603515625,-1.535308837890625,-0.0335540771484375,-0.359588623046875
1761818175670787600,12.82778759765625,-1.1555633544921875,-0.105804443359375,-0.291839599609375
1761818175680714500,12.837714599609376,-0.8944091796875,-0.10491943359375,-0.2284088134765625
1761818175690641700,12.8476416015625,-0.9407501220703125,-0.1013946533203125,-0.2153167724609375
